"year" "swiss camp" "day" "hour" "sw(V)_in" "sw(V)_out" "t1" "t2" "hum1" "hum2" "V1(m/s)" "V2(m/s)" "vdir1" "vdir2" "snowh1" "snowh2"
2006 11 132 1600 3.335 7.03 0.631 0.664 82.1 86.9 8.61 8.94 115.1 118.3 -6999 -6999
2006 11 132 1700 3.146 6.717 1.179 1.238 82.7 87.6 7.68 8 118 122 -6999 -6999
2006 11 132 1800 2.846 6.07 1.399 1.468 82.9 87.8 6.822 7.1 117.4 121.8 -6999 -6999
2006 11 132 1900 2.131 4.475 1.449 1.525 85 89.9 6.492 6.769 117.7 121.8 -6999 -6999
2006 11 132 2000 1.821 3.756 1.533 1.611 86.9 91.7 6.76 7.07 122.1 125.6 -6999 -6999
2006 11 132 2100 1.3 2.575 1.524 1.604 88.4 93.1 6.443 6.751 122.2 125.3 -6999 -6999
2006 11 132 2200 0.755 1.472 1.499 1.566 89.2 93.8 5.83 6.077 123.8 127.9 -6999 -6999
2006 11 132 2300 0.485 0.944 1.295 1.362 90.5 95.1 5.657 5.853 126 129.2 -6999 -6999
2006 11 133 100 0.154 0.301 1.093 1.15 91.2 95.8 5.834 6.099 121.9 126.1 -6999 -6999
2006 11 133 200 0.017 0.035 0.861 0.909 93 97.5 5.307 5.557 119.7 123 -6999 -6999
2006 11 133 300 0.006 0.011 0.913 0.959 92.7 97.1 5.589 5.836 119.5 122.8 -6999 -6999
2006 11 133 400 0.003 0.007 0.428 0.402 96.8 102.4 7.13 7.44 120.2 124.2 -6999 -6999
2006 11 133 500 0.007 0.014 -0.118 -0.194 101.6 107.1 7.04 7.33 120.6 124.9 -6999 -6999
2006 11 133 600 0.027 0.061 -0.154 -0.225 102 107.5 7.71 8 124.5 127.6 -6999 -6999
2006 11 133 700 0.096 0.213 -0.146 -0.218 101.8 107.5 7.79 8.09 125.4 129 -6999 -6999
2006 11 133 800 0.188 0.424 -0.065 -0.133 102 107.6 7.48 7.77 126 129.2 -6999 -6999
2006 11 133 900 0.36 0.809 0.108 0.033 102.3 107.7 6.508 6.75 131.5 135 -6999 -6999
2006 11 133 1000 0.572 1.297 0.115 0.076 102.4 107.6 5.486 5.71 138 142.1 -6999 -6999
2006 11 133 1100 0.925 2.084 0.107 0.069 101.8 107.2 4.584 4.725 140.2 142.5 -6999 -6999
2006 11 133 1200 1.227 2.705 0.117 0.118 101.1 106.3 3.574 3.453 154.8 158 -6999 -6999
2006 11 133 1300 2.046 4.467 0.083 0.106 98.7 103.7 3.131 2.971 163.3 165.2 -6999 -6999
2006 11 133 1400 1.581 3.457 -0.141 -0.148 99.6 104.4 1.779 1.943 186.5 188.1 -6999 -6999
2006 11 133 1500 2.09 4.601 0.122 0.186 96.1 100.7 1.024 1.091 184.8 189.2 -6999 -6999
2006 11 133 1600 2.245 5.026 1.494 1.95 86.8 91.3 0.408 0.403 144.5 143.9 -6999 -6999
2006 11 133 1700 2.146 4.763 1.199 1.661 86.9 92.4 0.71 0.722 102.1 105.1 -6999 -6999
2006 11 133 1800 1.827 4.098 0.924 1.2 88.7 94.3 0.816 0.838 120.8 126.2 -6999 -6999
2006 11 133 1900 2.056 4.688 0.238 0.395 92.8 98.3 1.782 1.842 110 112.7 -6999 -6999
2006 11 133 2000 1.931 4.335 0.078 0.13 94.1 99.7 2.617 2.661 142.6 144.9 -6999 -6999
2006 11 133 2100 0.981 2.172 -0.546 -0.543 100 104.9 3.857 3.713 163.7 165.2 -6999 -6999
2006 11 133 2200 0.759 1.703 -1.065 -1.075 100.7 105.6 3.686 3.749 190.8 190.5 -6999 -6999
2006 11 133 2300 0.565 1.274 -2.776 -2.799 99 104 2.679 2.82 278 280.6 -6999 -6999
2006 11 134 100 0.105 0.261 -2.702 -2.736 99.5 104.7 1.668 1.779 203.7 186.1 -6999 -6999
2006 11 134 200 0.021 0.058 -2.585 -2.562 98.7 103.9 3.834 4.065 46.71 48.17 -6999 -6999
2006 11 134 300 0.007 0.02 -0.822 -0.798 101.6 106.4 4.797 5.049 115.5 117.3 -6999 -6999
2006 11 134 400 0.007 0.016 -0.702 -0.69 102.6 107.5 4.729 4.773 151.5 154.2 -6999 -6999
2006 11 134 500 0.011 0.026 -1.581 -1.586 101.9 106.8 3.091 3.326 200.3 199.5 -6999 -6999
2006 11 134 600 0.042 0.103 -4.316 -4.338 99.1 103.9 2.968 3.122 293.2 296.8 -6999 -6999
2006 11 134 700 0.125 0.294 -4.83 -4.85 98.5 103.4 3.303 3.467 282.6 285.9 -6999 -6999
2006 11 134 800 0.384 0.881 -4.937 -4.962 97.7 102.8 2.51 2.641 282.6 285.8 -6999 -6999
2006 11 134 900 0.68 1.576 -3.959 -4.155 96.7 103.3 1.096 1.164 259.3 255.4 -6999 -6999
2006 11 134 1000 0.99 2.275 -3.894 -4.122 95.7 102.5 1.837 1.953 297.9 306.6 -6999 -6999
2006 11 134 1100 1.492 3.44 -4.296 -4.259 94.9 101.1 2.746 2.891 275.7 278.9 -6999 -6999
2006 11 134 1200 1.762 4.058 -4.507 -4.464 94.2 100.4 3.192 3.362 272 274.8 -6999 -6999
2006 11 134 1300 2.428 5.555 -4.392 -4.453 91.9 98.9 3.045 3.182 281.9 284.4 -6999 -6999
2006 11 134 1400 3.087 7.07 -4.096 -4.088 88 96 2.311 2.404 280.5 283.1 -6999 -6999
2006 11 134 1500 3.309 7.64 -3.978 -3.934 85.4 94.2 1.853 1.914 270 273.5 -6999 -6999
2006 11 134 1600 3.079 7.07 -4.073 -4.012 83.7 91.3 1.698 1.795 245.3 250.1 -6999 -6999
2006 11 134 1700 2.831 6.45 -4.554 -4.644 85.3 91.3 1.975 2.096 237.2 242 -6999 -6999
2006 11 134 1800 2.193 4.947 -4.962 -5.046 88.7 94.1 2.489 2.557 251 254.9 -6999 -6999
2006 11 134 1900 1.908 4.264 -5.715 -5.696 92.8 97.9 3.212 3.601 226.7 233.7 -6999 -6999
2006 11 134 2000 1.782 3.968 -6.414 -6.419 92.9 97.8 3.582 3.707 251.1 254.4 -6999 -6999
2006 11 134 2100 1.523 3.378 -6.964 -7.03 92 97.2 3.678 3.788 246.1 249.7 -6999 -6999
2006 11 134 2200 0.918 2.029 -7.57 -7.62 93.2 98.1 3.81 3.964 229.1 235.3 -6999 -6999
2006 11 134 2300 0.605 1.335 -8.18 -8.18 94.5 99 2.434 3.249 215.4 224.5 -6999 -6999
2006 11 135 100 0.244 0.531 -8.62 -8.63 95.9 100 1.406 2.179 199.8 205.7 -6999 -6999
2006 11 135 200 0.057 0.125 -8.62 -8.62 95.7 100 1.49 1.455 161.4 163.3 -6999 -6999
2006 11 135 300 0.013 0.026 -9.31 -9.24 95.3 99.8 1.445 1.627 111.8 114.9 -6999 -6999
2006 11 135 400 0.008 0.021 -9.21 -9.21 95.2 99.8 2.216 2.344 102.6 105.7 -6999 -6999
2006 11 135 500 0.018 0.037 -10.27 -10.18 93.9 98.9 2.576 2.841 82.3 83.5 -6999 -6999
2006 11 135 600 0.06 0.125 -13.67 -13.39 91.3 96.8 3.999 4.417 70.1 71.1 -6999 -6999
2006 11 135 700 0.216 0.398 -15.4 -15.07 89.2 95.5 4.102 4.573 64.83 65.96 -6999 -6999
2006 11 135 800 0.719 1.216 -13.18 -12.95 89 95.9 4.323 4.711 83 84.7 -6999 -6999
2006 11 135 900 0.9 1.587 -10.26 -10.03 83.8 89.5 6.915 7.28 95.1 97.2 -6999 -6999
2006 11 135 1000 1.252 2.326 -8.69 -8.56 77.5 81.6 7.53 7.91 84.6 85.7 -6999 -6999
2006 11 135 1100 2.539 5.058 -6.106 -6.023 76.9 81.1 8.76 9.13 99.6 103.1 -6999 -6999
2006 11 135 1200 2.917 5.849 -6.7 -6.646 77.7 82 7.65 7.87 134.4 137 -6999 -6999
2006 11 135 1300 3.179 6.658 -9.85 -9.89 85.3 89.9 8.12 7.89 160.1 162.5 -6999 -6999
2006 11 135 1400 3.436 7.44 -9.05 -9.11 86.3 91.3 9.04 9.38 136.5 140.2 -6999 -6999
2006 11 135 1500 3.571 7.94 -6.925 -6.92 81.3 86.2 7.42 7.72 119.2 121.8 -6999 -6999
2006 11 135 1600 3.493 7.97 -4.692 -4.656 75.9 80.4 7.22 7.49 111.5 114.3 -6999 -6999
2006 11 135 1700 3.234 7.39 -3.243 -3.19 79.7 84.4 9.13 9.52 120.7 123.8 -6999 -6999
2006 11 135 1800 2.834 6.408 -2.781 -2.734 84.4 89.1 10.57 11.04 121.9 124.8 -6999 -6999
2006 11 135 1900 2.28 5.078 -2.464 -2.407 84.8 89.3 10.97 11.44 126.4 129.6 -6999 -6999
2006 11 135 2000 2.394 5.515 -2.206 -2.144 82.2 86.6 11.67 12.16 136.2 137.8 -6999 -6999
2006 11 135 2100 2.143 5.308 -2.361 -2.292 83.3 87.9 11.72 12.23 131.8 135.2 -6999 -6999
2006 11 135 2200 1.242 3.351 -3.136 -3.025 84.1 88.7 12.05 12.56 127.2 130.9 -6999 -6999
2006 11 135 2300 0.892 2.307 -3.698 -3.58 83.5 87.9 11.65 12.18 123.5 127.1 -6999 -6999
2006 11 136 100 0.359 0.929 -4.35 -4.228 84.4 88.5 13.13 13.71 124 127.6 -6999 -6999
2006 11 136 200 0.085 0.174 -4.754 -4.641 85.9 89.8 13.62 14.2 127.8 131 -6999 -6999
2006 11 136 300 0.021 0.043 -4.91 -4.807 86.1 90.1 13.87 14.45 128.9 131.5 -6999 -6999
2006 11 136 400 0.016 0.03 -4.896 -4.788 85.4 89.3 14.17 14.79 127.8 130.6 -6999 -6999
2006 11 136 500 0.037 0.074 -4.925 -4.815 84.9 88.9 13.67 14.24 125.2 128.6 -6999 -6999
2006 11 136 600 0.214 0.327 -5.09 -4.971 84.1 88.1 13.27 13.84 128.4 132.6 -6999 -6999
2006 11 136 700 0.508 0.766 -5.108 -4.985 83.9 88 13.49 14.07 129.5 134.1 -6999 -6999
2006 11 136 800 0.617 1.117 -4.973 -4.856 84.5 88.7 13.28 13.83 129.3 132.4 -6999 -6999
2006 11 136 900 1.024 1.825 -4.861 -4.749 84.7 88.9 13.52 14.1 124.3 127.3 -6999 -6999
2006 11 136 1000 1.748 3.224 -4.685 -4.585 84.1 88.5 13.65 14.25 119.1 122.2 -6999 -6999
2006 11 136 1100 2.476 4.784 -4.229 -4.133 83.7 88 14.3 14.95 119.4 122.5 -6999 -6999
2006 11 136 1200 2.862 5.73 -3.745 -3.657 83.1 87.3 14.17 14.76 121.7 125 -6999 -6999
2006 11 136 1300 3.189 6.627 -3.316 -3.236 82.8 87 13.91 14.5 124.2 127.5 -6999 -6999
2006 11 136 1400 3.503 7.49 -2.741 -2.669 81.4 85.7 12.53 13.05 120.8 123.3 -6999 -6999
2006 11 136 1500 3.594 7.9 -2.155 -2.081 80.3 84.5 11.85 12.35 121.1 124.3 -6999 -6999
2006 11 136 1600 3.477 7.88 -1.543 -1.466 79.5 83.8 10.69 11.16 119.3 122.6 -6999 -6999
2006 11 136 1700 3.257 7.62 -1.147 -1.067 78.5 82.7 10.13 10.57 119 122.2 -6999 -6999
2006 11 136 1800 3.115 7.46 -0.987 -0.898 78.8 83.1 10 10.43 119.1 121.7 -6999 -6999
2006 11 136 1900 2.663 6.517 -1.009 -0.896 80 84.3 9.79 10.21 115.5 119.7 -6999 -6999
2006 11 136 2000 2.083 5.263 -1.268 -1.139 79.1 83.4 9.57 9.99 116.6 120.1 -6999 -6999
2006 11 136 2100 1.745 4.561 -1.666 -1.526 79 83.2 9.74 10.16 116 118.9 -6999 -6999
2006 11 136 2200 1.255 3.366 -2.3 -2.157 79.4 83.6 9.35 9.77 113.6 116.6 -6999 -6999
2006 11 136 2300 0.835 2.248 -3.053 -2.913 78.9 83.2 9.45 9.85 114.1 117.1 -6999 -6999
2006 11 137 100 0.394 1.074 -4.052 -3.905 77.7 81.9 9.02 9.37 112.5 115.7 -6999 -6999
2006 11 137 200 0.11 0.222 -5.263 -5.106 77.5 81.2 9.29 9.66 107.7 110.8 -6999 -6999
2006 11 137 300 0.032 0.068 -6.552 -6.413 77.1 80.9 9.92 10.3 99.9 102.2 -6999 -6999
2006 11 137 400 0.021 0.044 -7.49 -7.36 77 80.7 11.8 12.23 102.8 105.8 -6999 -6999
2006 11 137 500 0.042 0.077 -7.94 -7.81 78.1 81.7 12.18 12.63 105.7 108.6 -6999 -6999
2006 11 137 600 0.18 0.246 -8.65 -8.53 79.4 83.2 11.75 12.2 102.1 103.5 -6999 -6999
2006 11 137 700 0.486 0.672 -9.43 -9.33 78.8 82.7 11.18 11.6 98.5 101.4 -6999 -6999
2006 11 137 800 0.967 1.532 -9.49 -9.4 77.3 81.2 11.42 11.84 95.5 97.1 -6999 -6999
2006 11 137 900 1.457 2.544 -9.26 -9.17 76.6 80.5 12.33 12.77 97.9 99.7 -6999 -6999
2006 11 137 1000 1.978 3.672 -9.27 -9.2 77.5 81.4 11.62 12.08 91.9 94.4 -6999 -6999
2006 11 137 1100 2.478 4.811 -8.93 -8.88 78.6 82.7 11.55 12.01 93.1 95.7 -6999 -6999
2006 11 137 1200 2.929 5.908 -7.89 -7.83 77.7 81.7 11.36 11.84 91.6 93.6 -6999 -6999
2006 11 137 1300 3.277 6.836 -6.721 -6.675 76.6 80.8 10.78 11.18 94.6 97.5 -6999 -6999
2006 11 137 1400 3.514 7.55 -5.457 -5.419 76 80.2 10.43 10.8 102.7 105 -6999 -6999
2006 11 137 1500 3.626 8 -4.456 -4.427 76.5 80.8 9.46 9.8 101.8 103.3 -6999 -6999
2006 11 137 1600 3.603 8.17 -3.514 -3.473 75.4 79.6 9.49 9.84 106.1 108.6 -6999 -6999
2006 11 137 1700 3.425 7.97 -3.007 -2.957 76 80.3 9.44 9.8 101.3 103.7 -6999 -6999
2006 11 137 1800 3.105 7.41 -2.393 -2.332 75.3 79.7 7.36 7.67 119.8 123.6 -6999 -6999
2006 11 137 1900 2.705 6.625 -2.325 -2.232 76.7 81.1 6.937 7.24 117.9 120 -6999 -6999
2006 11 137 2000 2.245 5.646 -2.541 -2.447 78.3 82.9 7.21 7.53 113.6 116.8 -6999 -6999
2006 11 137 2100 1.75 4.535 -2.985 -2.875 78.9 83.5 6.904 7.19 111.9 113.8 -6999 -6999
2006 11 137 2200 1.267 3.375 -3.839 -3.721 79.5 84.3 5.998 6.271 111.5 114.7 -6999 -6999
2006 11 137 2300 0.85 2.264 -5.179 -5.012 79.8 84.5 5.944 6.262 108.2 111.8 -6999 -6999
2006 11 138 100 0.328 0.93 -6.929 -6.74 78.6 82.7 6.634 6.992 107.3 110 -6999 -6999
2006 11 138 200 0.069 0.133 -8.66 -8.48 78.3 81.7 6.825 7.16 101.9 104.1 -6999 -6999
2006 11 138 300 0.028 0.062 -9.88 -9.74 78.1 81.7 7.39 7.74 97.5 100 -6999 -6999
2006 11 138 400 0.023 0.047 -10.63 -10.48 77.8 81.6 7.29 7.63 100.9 103.8 -6999 -6999
2006 11 138 500 0.039 0.074 -11.31 -11.18 76.1 80 7.87 8.23 92.4 94.2 -6999 -6999
2006 11 138 600 0.202 0.27 -12.21 -12.09 75.3 79.2 7.75 8.12 83.7 84.5 -6999 -6999
2006 11 138 700 0.564 0.775 -12.46 -12.35 74 77.9 7.78 8.14 82.2 83.8 -6999 -6999
2006 11 138 800 0.993 1.576 -12.23 -12.13 73.5 77.4 7.84 8.19 82.8 83.8 -6999 -6999
2006 11 138 900 1.49 2.585 -11.64 -11.56 72.5 76.3 7.74 8.07 86.7 87.6 -6999 -6999
2006 11 138 1000 2.013 3.704 -10.77 -10.71 72.5 76.3 8.1 8.44 87.2 88.7 -6999 -6999
2006 11 138 1100 2.513 4.85 -10.24 -10.19 73.7 77.4 9.02 9.4 89.5 91.2 -6999 -6999
2006 11 138 1200 2.949 5.915 -9.26 -9.23 73.7 77.5 8.94 9.26 94.5 96.8 -6999 -6999
2006 11 138 1300 3.292 6.841 -7.96 -7.95 73.3 77.1 8.02 8.3 103.3 105.9 -6999 -6999
2006 11 138 1400 3.522 7.54 -6.918 -6.921 73.5 77.7 7.71 7.98 102.8 105.4 -6999 -6999
2006 11 138 1500 3.622 7.97 -5.975 -5.982 73.1 77.5 7.48 7.74 107.6 111.3 -6999 -6999
2006 11 138 1600 3.582 8.1 -5.052 -5.04 73.1 77.6 6.975 7.23 115.1 117.9 -6999 -6999
2006 11 138 1700 3.402 7.91 -4.34 -4.311 74 78.8 6.248 6.471 121 123.9 -6999 -6999
2006 11 138 1800 3.108 7.39 -3.802 -3.759 73.1 78 4.884 5.047 127 130.1 -6999 -6999
2006 11 138 1900 2.712 6.616 -3.537 -3.514 73.8 79.2 3.129 3.241 134.2 137.5 -6999 -6999
2006 11 138 2000 2.251 5.63 -2.875 -2.861 74.7 80.2 0.909 0.913 163.4 168.1 -6999 -6999
2006 11 138 2100 1.764 4.542 0.161 0.513 63.56 68.31 0.15 0.151 121.1 142.8 -6999 -6999
2006 11 138 2200 1.277 3.376 -3.849 -2.964 72.1 76.7 0.129 0.111 160.3 144.4 -6999 -6999
2006 11 138 2300 0.859 2.28 -6.886 -5.546 74.4 79.5 0.115 0.189 109.4 91.5 -6999 -6999
2006 11 139 100 0.339 0.942 -11.17 -10.71 87 92.2 3.222 3.618 80.9 80.8 -6999 -6999
2006 11 139 200 0.079 0.152 -13.96 -13.78 85.1 89.4 4.844 5.186 73.2 74.5 -6999 -6999
2006 11 139 300 0.036 0.075 -15.4 -15.24 84.6 89 4.945 5.282 75.2 76.8 -6999 -6999
2006 11 139 400 0.028 0.059 -15.96 -15.82 83.5 88 5.476 5.814 75.1 77.1 -6999 -6999
2006 11 139 500 0.058 0.1 -16.22 -16.08 82.5 87.1 5.852 6.183 77.6 78.9 -6999 -6999
2006 11 139 600 0.21 0.296 -16.24 -16.11 81.2 85.8 5.857 6.202 77.6 78.9 -6999 -6999
2006 11 139 700 0.56 0.791 -15.73 -15.61 79.8 84.5 6.116 6.442 78.8 80.5 -6999 -6999
2006 11 139 800 0.991 1.586 -14.91 -14.81 78.5 83 6.288 6.596 82 82.8 -6999 -6999
2006 11 139 900 1.495 2.6 -13.58 -13.5 77.2 81.6 6.639 6.936 86.8 87.7 -6999 -6999
2006 11 139 1000 2.02 3.716 -12.68 -12.63 76.6 80.8 6.744 7.02 91.3 93.3 -6999 -6999
2006 11 139 1100 2.523 4.854 -11.8 -11.78 76.1 80.3 6.471 6.702 93.5 95.4 -6999 -6999
2006 11 139 1200 2.956 5.915 -10.53 -10.53 74.2 78.3 6.964 7.18 102.6 104.2 -6999 -6999
2006 11 139 1300 3.299 6.835 -9.1 -9.12 73.5 77.6 7.18 7.39 107.6 110.3 -6999 -6999
2006 11 139 1400 3.526 7.53 -7.97 -7.99 73.9 78.2 6.702 6.896 115 118.5 -6999 -6999
2006 11 139 1500 3.628 7.96 -7.12 -7.14 74.4 79.3 6.122 6.312 119.3 122.3 -6999 -6999
2006 11 139 1600 3.588 8.1 -6.322 -6.322 74.2 79.2 5.209 5.359 125.6 128.7 -6999 -6999
2006 11 139 1700 3.415 7.91 -5.749 -5.735 74.9 80.1 4.719 4.843 127.1 130.2 -6999 -6999
2006 11 139 1800 3.123 7.4 -5.283 -5.275 75.6 81 4.245 4.363 131.2 135.4 -6999 -6999
2006 11 139 1900 2.728 6.636 -5.008 -5.018 76.3 82.1 3.77 3.872 142.4 145.7 -6999 -6999
2006 11 139 2000 2.269 5.67 -4.987 -4.97 78.3 84.6 2.625 2.756 140.5 143.8 -6999 -6999
2006 11 139 2100 1.775 4.57 -5.607 -5.458 80.6 86.5 1.845 2.058 126.9 130.7 -6999 -6999
2006 11 139 2200 1.3 3.438 -6.868 -6.547 83.2 88.9 2.142 2.43 113 116.9 -6999 -6999
2006 11 139 2300 0.876 2.325 -8.2 -7.83 85.3 90.2 3.323 3.688 106.4 109.2 -6999 -6999
2006 11 140 100 0.272 0.72 -10.18 -9.87 87.2 91.7 4.51 4.89 101.5 104.1 -6999 -6999
2006 11 140 200 0.072 0.156 -10.99 -10.8 87.7 92.1 5.889 6.227 98.8 101.1 -6999 -6999
2006 11 140 300 0.026 0.058 -11.31 -11.16 87.4 91.9 6.56 6.871 101.6 104.2 -6999 -6999
2006 11 140 400 0.021 0.046 -11.44 -11.33 86 90.4 7.45 7.76 102.1 104.2 -6999 -6999
2006 11 140 500 0.045 0.092 -11.36 -11.28 84.4 88.8 7.24 7.51 103.2 105.6 -6999 -6999
2006 11 140 600 0.15 0.296 -11.16 -11.09 81.7 86 8.2 8.5 101.8 104.6 -6999 -6999
2006 11 140 700 0.25 0.511 -11.13 -11.08 80.4 84.6 8.88 9.19 102.3 104.9 -6999 -6999
2006 11 140 800 0.586 1.235 -10.54 -10.5 79.6 83.7 9.08 9.4 102.9 105.2 -6999 -6999
2006 11 140 900 0.718 1.546 -9.76 -9.73 80 84 8.53 8.87 106.9 109.7 -6999 -6999
2006 11 140 1000 1.05 2.272 -8.97 -8.93 79.3 83.3 8.38 8.71 108.7 110.7 -6999 -6999
2006 11 140 1100 1.531 3.292 -8.15 -8.12 78.7 82.7 8.12 8.45 107.7 109.9 -6999 -6999
2006 11 140 1200 2.1 4.587 -7.07 -7.04 78.2 82.6 7.78 8.11 112.8 116.2 -6999 -6999
2006 11 140 1300 2.142 4.764 -6.702 -6.68 84.8 89.9 7.37 7.71 121.3 125.1 -6999 -6999
2006 11 140 1400 2.302 5.16 -5.943 -5.948 89.3 94.8 6.471 6.729 138 141.4 -6999 -6999
2006 11 140 1500 2.536 5.716 -5.401 -5.411 90.1 95.6 6.03 6.237 139.1 142.5 -6999 -6999
2006 11 140 1600 2.562 5.785 -5.054 -5.067 90.8 96.2 6.546 6.365 164.8 167 -6999 -6999
2006 11 140 1700 2.382 5.406 -5.155 -5.184 91.6 96.9 5.849 5.8 177.6 176.7 -6999 -6999
2006 11 140 1800 2.101 4.73 -5.365 -5.369 89.2 94.3 6.61 6.378 162.8 164.5 1.413 1.446
2006 11 140 1900 1.804 4.091 -5.562 -5.579 93.1 98.4 6.597 6.616 177.4 176.8 2.658 2.696
2006 11 140 2000 1.472 3.327 -5.82 -5.833 92.7 97.9 6.301 6.178 172.7 173.3 2.616 2.694
2006 11 140 2100 1.033 2.332 -6.041 -6.045 94 99.1 5.629 5.671 173.4 175 2.56 2.709
2006 11 140 2200 0.747 1.678 -6.143 -6.105 94.4 99.5 2.659 4.561 210 219.8 2.357 2.69
2006 11 140 2300 0.491 1.101 -6.23 -6.214 95 100.1 1.96 3.725 203.6 212.3 2.586 2.649
2006 11 141 0 0.535 1.189 -6.265 -6.257 95 100.2 2.129 3.448 199.6 205.7 2.565 2.632
2006 11 141 100 0.169 0.372 -6.394 -6.396 95.9 101.1 3 4.821 198.8 204.7 2.572 2.619
2006 11 141 200 0.082 0.182 -6.753 -6.763 96.1 101 4.845 8.21 209.3 219.5 2.52 2.688
2006 11 141 300 0.031 0.072 -6.876 -6.869 96.6 101.2 4.844 7.08 211.1 221.8 2.634 2.717
2006 11 141 400 0.021 0.051 -6.854 -6.84 96.6 101.2 4.401 6.644 211.8 222.6 2.635 2.716
2006 11 141 500 0.034 0.082 -6.925 -6.922 96.6 101.1 5.382 6.058 221 229.1 2.566 2.687
2006 11 141 600 0.085 0.195 -6.874 -6.877 96.5 101.1 4.486 4.7 227.1 233.5 2.561 2.683
2006 11 141 700 0.24 0.525 -7.06 -7.06 96.3 100.7 4.719 4.899 228 236.1 2.565 2.683
2006 11 141 800 0.419 0.909 -7.09 -7.09 96.2 100.6 3.482 3.533 238 243.5 2.565 2.682
2006 11 141 900 0.74 1.618 -6.971 -6.97 96 100.4 1.708 1.773 265.4 268.8 2.565 2.683
2006 11 141 1000 1.314 2.865 -6.803 -6.809 95.6 99.9 1.006 1.099 208.8 212.9 2.564 2.682
2006 11 141 1100 1.985 4.348 -6.461 -6.47 95.4 99.4 0.883 0.899 155.4 160.2 2.563 2.68
2006 11 141 1200 2.229 4.964 -6.652 -6.669 94.3 98.7 1.401 1.375 145 147.8 2.564 2.679
2006 11 141 1300 2.669 5.97 -6.541 -6.519 90.3 97.6 1.986 1.995 134.1 136.2 2.564 2.679
2006 11 141 1400 3.057 6.861 -6.275 -6.26 84.8 94.9 2.528 2.486 144.8 146.7 2.563 2.678
2006 11 141 1500 3.504 7.91 -5.604 -5.626 77.6 85.1 2.713 2.676 143.1 145.6 2.562 2.676
2006 11 141 1600 3.499 8.02 -5.18 -5.239 73.3 78.8 3.411 3.443 136.8 141.1 2.561 2.675
2006 11 141 1700 3.408 8.08 -4.981 -5.019 72.6 77.8 3.794 3.81 142 144.2 2.561 2.673
2006 11 141 1800 3.077 7.58 -5.006 -5.015 72.7 78.2 3.535 3.689 134.7 138.1 2.562 2.674
2006 11 141 1900 2.784 7.06 -4.908 -4.912 73.5 79 2.822 2.833 150.9 153.1 2.563 2.674
2006 11 141 2000 2.301 6.002 -5.558 -5.527 76.1 82.1 2.111 2.248 144.7 148.4 2.567 2.678
2006 11 141 2100 1.785 4.752 -7.07 -6.852 79.5 84.9 2.273 2.549 108.6 112.6 2.574 2.684
2006 11 141 2200 1.303 3.513 -8.62 -8.36 81.4 86.2 3.088 3.446 93.8 97.3 2.581 2.692
2006 11 141 2300 0.867 2.317 -11.18 -10.91 83 87.8 3.769 4.169 79.6 81.3 2.594 2.705
2006 11 142 0 0.513 1.376 -12.8 -12.54 83.5 88.2 4.593 5 76.7 77.7 2.6 2.714
2006 11 142 100 0.231 0.633 -14.01 -13.82 82.3 86.8 5.47 5.864 76.8 78.9 2.605 2.72
2006 11 142 200 0.098 0.179 -14.8 -14.59 82.6 86.9 6.206 6.631 80.1 82.6 2.609 2.725
2006 11 142 300 0.054 0.101 -15.63 -15.44 82 86 6.568 6.978 79.6 81.6 2.614 2.729
2006 11 142 400 0.05 0.095 -16.35 -16.23 80.8 85.1 7.59 8.02 80.1 81.4 2.618 2.735
2006 11 142 500 0.102 0.163 -16.63 -16.52 79.4 83.8 8.05 8.53 78.7 81.1 2.618 2.711
2006 11 142 600 0.306 0.412 -16.66 -16.57 78.8 83.3 8.69 9.16 79.6 80.8 2.624 2.726
2006 11 142 700 0.667 0.949 -16.72 -16.65 78.1 82.7 9.3 9.79 78.8 80.5 2.635 2.738
2006 11 142 800 1.101 1.769 -16.19 -16.13 77.8 82.4 9.77 10.27 80.3 81.7 2.687 2.762
2006 11 142 900 1.588 2.828 -14.85 -14.8 77.3 81.9 10.44 10.97 83.3 85.8 2.703 2.735
2006 11 142 1000 2.099 3.955 -14.32 -14.27 77.1 81.6 11.01 11.53 86.1 88.8 2.738 2.767
2006 11 142 1100 2.602 5.071 -13.77 -13.73 76.4 80.7 11.98 12.51 88.4 88.8 2.725 2.702
2006 11 142 1200 3.037 6.163 -12.95 -12.92 75 79.2 11.12 11.59 92.6 94.9 2.624 2.626
2006 11 142 1300 3.395 7.14 -12.07 -12.05 74.3 78.5 10.84 11.3 94.6 96.4 2.722 2.739
2006 11 142 1400 3.633 7.83 -11.11 -11.09 74.5 78.9 10.57 11 94 96.1 2.731 2.75
2006 11 142 1500 3.728 8.22 -9.49 -9.46 73.2 77.2 9.95 10.4 94.1 95.7 2.725 2.742
2006 11 142 1600 3.675 8.33 -8.26 -8.22 73.3 77.3 9.51 9.92 95.7 98.4 2.717 2.734
2006 11 142 1700 3.501 8.15 -7.16 -7.12 71.9 76.1 9.27 9.69 101.5 103.4 2.71 2.728
2006 11 142 1800 3.202 7.63 -6.375 -6.321 71.9 76.3 8.9 9.28 100.5 103.4 2.71 2.724
2006 11 142 1900 2.804 6.886 -6.016 -5.946 72.9 77.4 8.95 9.33 102.5 104.5 2.715 2.71
2006 11 142 2000 2.333 5.919 -5.844 -5.762 73.3 77.7 9.03 9.39 100.4 103 2.714 2.669
2006 11 142 2100 1.837 4.814 -5.97 -5.863 72.4 76.7 9.14 9.54 101.3 104.8 2.693 2.678
2006 11 142 2200 1.347 3.633 -6.311 -6.193 72.7 77 8.8 9.2 102.5 104.3 2.682 2.627
2006 11 142 2300 0.917 2.455 -6.971 -6.836 72.1 76.1 8.94 9.32 102.8 105.1 2.561 2.499
2006 11 143 0 0.545 1.447 -7.88 -7.74 72.5 76.1 9 9.38 102.7 104.6 2.543 2.497
2006 11 143 100 0.254 0.659 -8.81 -8.66 72.9 76.3 9.46 9.89 100.8 103.3 2.509 2.529
2006 11 143 200 0.111 0.203 -9.72 -9.57 73.6 76.9 9.85 10.27 102.2 104.3 2.528 2.571
2006 11 143 300 0.059 0.112 -10.65 -10.5 75.1 78.4 10.25 10.67 101.5 103.9 2.573 2.587
2006 11 143 400 0.053 0.096 -11.08 -10.94 74.8 78.3 10.47 10.91 102.2 104.4 2.586 2.59
2006 11 143 500 0.1 0.167 -11.52 -11.38 74.7 78.3 11 11.5 102.2 105.1 2.607 2.597
2006 11 143 600 0.296 0.407 -12.1 -11.98 75.1 78.9 11.17 11.67 99 101.3 2.647 2.6
2006 11 143 700 0.64 0.909 -12.21 -12.09 75.5 79.4 10.98 11.45 100.3 102.4 2.646 2.6
2006 11 143 800 1.084 1.761 -11.89 -11.77 74.2 78.1 11.34 11.81 102.3 104.8 2.6 2.624
2006 11 143 900 1.596 2.785 -11.9 -11.81 74.2 78.2 11.78 12.26 103.1 105.9 2.69 2.685
2006 11 143 1000 2.132 3.936 -11.59 -11.52 75 79.1 12.34 12.84 101.7 105.4 2.739 2.709
2006 11 143 1100 2.639 5.104 -10.86 -10.8 74.8 78.9 12.12 12.6 100.4 103.7 2.742 2.73
2006 11 143 1200 3.087 6.206 -9.8 -9.74 74.8 78.9 11.32 11.77 100.4 101.8 2.74 2.746
2006 11 143 1300 3.436 7.15 -8.54 -8.49 73.7 77.5 11 11.4 102.3 105.3 2.736 2.741
2006 11 143 1400 3.69 7.96 -7.16 -7.12 72.8 76.9 10.34 10.74 103.8 106.8 2.728 2.733
2006 11 143 1500 3.787 8.31 -5.875 -5.83 71.9 76 9.76 10.15 109.2 111.3 2.722 2.727
2006 11 143 1600 3.681 8.24 -4.957 -4.911 72.7 77 9 9.37 110.8 113.2 2.721 2.705
2006 11 143 1700 3.413 7.77 -4.265 -4.212 72.6 76.9 8.07 8.42 111 114.4 2.718 2.702
2006 11 143 1800 3.31 7.67 -3.814 -3.747 73.5 77.9 8.14 8.5 112.9 115.9 2.713 2.686
2006 11 143 1900 2.596 6.143 -3.76 -3.661 74.7 79.2 7.68 8.04 117.6 121.7 2.713 2.687
2006 11 143 2000 2.355 5.709 -3.786 -3.677 74.8 79.3 7.34 7.69 120.9 124.8 2.712 2.688
2006 11 143 2100 1.755 4.386 -4.398 -4.278 76 80.7 6.814 7.16 120.6 124.1 2.715 2.69
2006 11 143 2200 1.393 3.488 -5.419 -5.312 77.2 82 6.475 6.802 114 118.2 2.719 2.695
2006 11 143 2300 0.762 1.931 -6.288 -6.146 75.6 79.9 6.984 7.35 112.1 115.9 2.72 2.692
2006 11 144 0 0.327 0.743 -7.53 -7.4 75.5 79.3 6.231 6.533 107.5 110 2.728 2.695
2006 11 144 100 0.206 0.443 -7.38 -7.29 75.3 78.9 7.2 7.54 114.1 116.2 2.728 2.693
2006 11 144 200 0.1 0.214 -7.86 -7.77 75.4 78.8 7.44 7.78 113.8 117.1 2.716 2.699
2006 11 144 300 0.051 0.11 -8.26 -8.19 76.6 80.2 7.33 7.66 111.4 114.9 2.724 2.699
2006 11 144 400 0.036 0.081 -8.55 -8.47 77.3 81 7.57 7.91 105.7 107.5 2.729 2.704
2006 11 144 500 0.079 0.161 -9.12 -9.05 76.8 80.4 8.09 8.42 106.4 109.1 2.726 2.691
2006 11 144 600 0.224 0.418 -10.09 -10.01 76.1 79.7 8.43 8.79 107.6 109.3 2.725 2.693
2006 11 144 700 0.535 0.964 -10.53 -10.48 75.4 79.1 9.05 9.4 101.5 103.5 2.728 2.72
2006 11 144 800 0.743 1.473 -10.39 -10.34 75.1 78.7 9.78 10.15 105.9 108.1 2.743 2.719
2006 11 144 900 0.814 1.697 -10.17 -10.12 76.3 79.9 9.93 10.32 106.2 108.1 2.738 2.707
2006 11 144 1000 1.39 2.934 -9.55 -9.51 75.8 79.5 9.94 10.35 108 110.4 2.736 2.712
2006 11 144 1100 1.772 3.853 -8.38 -8.33 75.3 79 9.7 10.11 107.2 109.3 2.736 2.714
2006 11 144 1200 1.95 4.278 -7.41 -7.37 75.2 79.1 9.22 9.6 107.5 109.9 2.735 2.709
2006 11 144 1300 2.436 5.302 -6.481 -6.441 73.7 77.8 8.78 9.16 108.3 112.4 2.73 2.702
2006 11 144 1400 3.114 6.778 -5.46 -5.429 72.4 76.6 8.22 8.56 108.3 112.2 2.727 2.7
2006 11 144 1500 3.569 7.82 -4.557 -4.529 72 76.1 7.81 8.13 112.5 116 2.723 2.695
2006 11 144 1600 3.273 7.24 -3.966 -3.935 73 77.2 7.31 7.62 112.8 116.1 2.721 2.692
2006 11 144 1700 3.301 7.45 -3.164 -3.119 74.3 78.8 6.804 7.09 116.2 120.2 2.718 2.688
2006 11 144 1800 2.897 6.551 -2.49 -2.428 73.5 78 6.639 6.927 123 126.1 2.714 2.684
2006 11 144 1900 2.331 5.174 -2.529 -2.465 75.2 79.7 5.89 6.141 121.5 125 2.714 2.685
2006 11 144 2000 1.97 4.362 -2.42 -2.355 74.7 79.1 5.485 5.712 124.3 127.7 2.712 2.685
2006 11 144 2100 1.266 2.763 -2.782 -2.72 77.1 81.6 5.175 5.4 122 125.6 2.713 2.686
2006 11 144 2200 0.921 2.005 -3.4 -3.331 79.5 84 5.556 5.812 122.1 125.9 2.716 2.689
2006 11 144 2300 0.644 1.391 -3.965 -3.895 81.2 85.7 5.202 5.449 116.6 120.7 2.718 2.692
2006 11 145 0 0.407 0.871 -4.686 -4.62 81.2 85.8 5.41 5.676 116.6 119.9 2.722 2.696
2006 11 145 100 0.214 0.456 -5.332 -5.25 80.4 84.8 6.444 6.755 120.1 123.6 2.724 2.699
2006 11 145 200 0.089 0.19 -6.125 -6.033 80 84.4 6.266 6.565 114.6 118 2.728 2.703
2006 11 145 300 0.037 0.084 -7.07 -6.953 79.3 83.3 6.905 7.24 111.4 114.6 2.732 2.709
2006 11 145 400 0.034 0.077 -7.2 -7.1 79 82.8 7.97 8.32 106 108.5 2.733 2.709
2006 11 145 500 0.063 0.136 -7.35 -7.27 80.2 84.1 7.52 7.86 107.6 111 2.733 2.689
2006 11 145 600 0.144 0.295 -7.67 -7.6 79.6 83.3 8.2 8.55 105.3 108.2 2.735 2.698
2006 11 145 700 0.254 0.514 -8.11 -8.06 80.1 84 8.24 8.57 104.7 107.6 2.738 2.717
2006 11 145 800 0.914 1.759 -8.27 -8.21 78.2 82 8.94 9.32 104.6 106.8 2.738 2.72
2006 11 145 900 1.239 2.452 -8.29 -8.25 77 80.8 9.15 9.52 102.2 105 2.741 2.722
2006 11 145 1000 1.666 3.225 -8.14 -8.09 75.5 79.1 8.95 9.35 107.1 110.4 2.739 2.722
2006 11 145 1100 2.324 4.583 -7.7 -7.66 74 77.7 8.69 9.07 108 110.3 2.738 2.723
2006 11 145 1200 2.762 5.631 -6.981 -6.952 72.9 76.9 8.02 8.37 109.8 112.1 2.737 2.717
2006 11 145 1300 2.971 6.221 -6.179 -6.158 72.4 76.4 7.85 8.18 107.8 109.4 2.734 2.712
2006 11 145 1400 3.13 6.695 -5.445 -5.423 72.9 77 7.72 8.05 112.1 114.5 2.731 2.71
2006 11 145 1500 3.569 7.8 -4.469 -4.453 72.8 77.1 7.4 7.71 114.2 118.6 2.728 2.705
2006 11 145 1600 3.897 8.65 -3.513 -3.496 73.5 77.9 7.2 7.5 115.3 119.3 2.723 2.7
2006 11 145 1700 3.565 8.12 -3.019 -2.981 73.9 78.6 6.397 6.67 122.6 126.4 2.722 2.697
2006 11 145 1800 3.131 7.32 -2.449 -2.418 74.4 79.4 5.255 5.45 130.3 133 2.72 2.694
2006 11 145 1900 3.105 7.4 -2.2 -2.159 74.4 79.6 4.594 4.762 130 133.7 2.719 2.693
2006 11 145 2000 2.322 5.711 -2.392 -2.334 78.1 83.4 3.973 4.15 130.2 134.5 2.719 2.694
2006 11 145 2100 1.79 4.505 -3.003 -2.889 81.2 86.6 3.151 3.348 127 130.6 2.723 2.697
2006 11 145 2200 1.31 3.344 -4.197 -4.021 83.5 88.8 2.963 3.212 117.9 122.1 2.729 2.703
2006 11 145 2300 0.798 1.989 -5.461 -5.265 85.5 90.6 3.88 4.206 116.6 119.7 2.734 2.709
2006 11 146 0 0.407 0.926 -7.11 -6.942 86.5 91 4.154 4.47 108.3 111.6 2.74 2.717
2006 11 146 100 0.182 0.392 -7.26 -7.2 87.3 91.6 4.5 4.742 105.3 108.2 2.741 2.718
2006 11 146 200 0.067 0.15 -6.476 -6.464 87 91.6 4.974 5.166 104.4 106.1 2.736 2.712
2006 11 146 300 0.043 0.096 -6.688 -6.677 87.2 91.8 4.988 5.171 101 103.4 2.737 2.713
2006 11 146 400 0.044 0.096 -7.07 -7.07 89.3 93.7 5.098 5.29 98 99.7 2.739 2.716
2006 11 146 500 0.075 0.161 -7.95 -7.97 92.4 96.7 6.008 6.222 93.3 94.8 2.742 2.72
2006 11 146 600 0.127 0.273 -8.78 -8.8 90.8 95.1 7.16 7.39 95.4 96.5 2.745 2.725
2006 11 146 700 0.237 0.509 -9.63 -9.65 85.6 89.8 7.9 8.16 93.3 95.2 2.747 2.73
2006 11 146 800 0.502 1.068 -10.04 -10.05 79.6 83.6 7.53 7.83 88.4 88.9 2.75 2.733
2006 11 146 900 0.884 1.881 -9.82 -9.83 77.6 81.6 7.49 7.78 85.6 86.6 2.749 2.732
2006 11 146 1000 1.351 2.875 -9.45 -9.46 76.5 80.5 6.888 7.15 86 87.4 2.748 2.731
2006 11 146 1100 2.069 4.343 -8.87 -8.89 75.1 79 6.776 7.04 84.8 86 2.745 2.728
2006 11 146 1200 3.187 6.451 -8.23 -8.25 72.1 76.1 6.411 6.651 84.2 84.8 2.744 2.726
2006 11 146 1300 3.388 7.02 -7.32 -7.32 73.7 77.9 6.514 6.774 88.7 90.3 2.74 2.722
2006 11 146 1400 3.607 7.67 -6.002 -6.011 73.5 78 6.498 6.723 95 97 2.734 2.716
2006 11 146 1500 3.711 8.09 -4.745 -4.767 72 76.6 5.436 5.619 104.8 106.4 2.729 2.709
2006 11 146 1600 3.636 8.12 -4.079 -4.087 72.5 77.1 5.461 5.657 113.3 116.3 2.727 2.706
2006 11 146 1700 3.503 7.97 -3.424 -3.411 73.3 78.2 5.218 5.395 115.7 119.3 2.724 2.702
2006 11 146 1800 3.258 7.56 -2.962 -2.918 74.2 79.2 4.593 4.78 122.5 125.2 2.722 2.7
2006 11 146 1900 2.701 6.418 -2.612 -2.561 76 81.3 3.084 3.207 128.8 131.6 2.72 2.698
2006 11 146 2000 2.357 5.765 -2.512 -2.397 78.1 83.4 2.089 2.215 117 120.8 2.719 2.699
2006 11 146 2100 1.843 4.644 -3.036 -2.901 80.6 86 1.903 2.087 100.4 103.1 2.722 2.701
2006 11 146 2200 1.33 3.419 -4.394 -4.223 83.4 88.7 2.054 2.316 83.7 85.4 2.729 2.707
2006 11 146 2300 0.911 2.332 -6.062 -5.903 84.5 89.7 2.886 3.177 79.9 80.8 2.735 2.715
2006 11 147 0 0.588 1.478 -7.9 -7.76 83.7 88.2 3.692 3.991 81.2 82.5 2.744 2.724
2006 11 147 100 0.306 0.784 -9.31 -9.14 83 87.2 4.444 4.777 82.6 83.7 2.753 2.731
2006 11 147 200 0.153 0.262 -10.72 -10.61 82.4 86.5 5.131 5.441 81.2 81.9 2.758 2.738
2006 11 147 300 0.087 0.147 -11.49 -11.35 81.5 85.2 5.367 5.699 80.9 83.1 2.763 2.743
2006 11 147 400 0.089 0.138 -11.82 -11.66 80.3 84.2 5.643 5.986 83 83.9 2.764 2.744
2006 11 147 500 0.137 0.228 -11.81 -11.69 78 82.3 6.619 6.99 83.4 84.1 2.764 2.745
2006 11 147 600 0.373 0.535 -11.82 -11.71 76.2 80.3 7.12 7.47 85.7 86 2.765 2.746
2006 11 147 700 0.727 1.099 -11.46 -11.36 74.9 78.9 7.7 8.07 85.5 87.2 2.762 2.745
2006 11 147 800 1.153 1.922 -11.25 -11.17 73.3 77.1 8.25 8.64 86.9 88.7 2.761 2.746
2006 11 147 900 1.648 2.939 -10.68 -10.61 72.3 76.1 8.41 8.79 87.7 90.1 2.758 2.743
2006 11 147 1000 2.159 4.043 -10.11 -10.05 72.9 76.6 8.46 8.82 90.8 91.9 2.757 2.741
2006 11 147 1100 2.641 5.139 -9.15 -9.11 72.6 76.3 8.04 8.38 93.2 94.6 2.751 2.739
2006 11 147 1200 3.057 6.142 -7.92 -7.89 71.8 75.5 7.92 8.23 97.9 100.7 2.745 2.733
2006 11 147 1300 3.387 7.01 -6.563 -6.546 69.94 73.9 7.77 8.07 102.5 105.1 2.74 2.724
2006 11 147 1400 3.611 7.67 -5.41 -5.402 70.9 74.9 7.46 7.75 105.7 108 2.734 2.718
2006 11 147 1500 3.726 8.1 -4.367 -4.364 71.8 76 7.04 7.3 110.2 113.2 2.73 2.712
2006 11 147 1600 3.688 8.21 -3.519 -3.501 72.1 76.6 6.451 6.719 113.7 117.1 2.726 2.706
2006 11 147 1700 3.707 8.36 -2.815 -2.785 70.9 75.2 6.178 6.425 116.7 119.7 2.724 2.703
2006 11 147 1800 3.248 7.51 -2.373 -2.323 72.4 76.9 5.369 5.578 118.1 121.6 2.722 2.7
2006 11 147 1900 2.81 6.711 -2.118 -2.033 73.7 78.5 4.523 4.712 119.7 122.7 2.72 2.698
2006 11 147 2000 2.365 5.757 -2.091 -2.007 76 81 3.573 3.745 114.4 118 2.721 2.698
2006 11 147 2100 1.874 4.69 -2.54 -2.446 78.6 83.5 3.707 3.949 106.4 108.3 2.723 2.7
2006 11 147 2200 1.32 3.372 -3.708 -3.567 80.7 85.6 3.5 3.78 106.4 108.5 2.728 2.706
2006 11 147 2300 0.905 2.309 -5.174 -4.979 81.2 86 3.327 3.648 101.5 104.4 2.735 2.714
2006 11 148 0 0.608 1.519 -6.309 -6.087 80.6 85.2 3.786 4.121 90 90.8 2.741 2.72
2006 11 148 100 0.243 0.609 -6.95 -6.721 78.4 82.6 4.892 5.259 87.1 88.8 2.743 2.722
2006 11 148 200 0.102 0.197 -8.74 -8.51 79.7 83.4 5.35 5.768 86.8 88.1 2.753 2.731
2006 11 148 300 0.063 0.127 -9.65 -9.48 78.5 82.3 5.584 5.957 84.2 85.3 2.755 2.737
2006 11 148 400 0.058 0.115 -9.69 -9.49 76.1 79.7 5.728 6.12 86.7 87.2 2.756 2.736
2006 11 148 500 0.113 0.214 -10.04 -9.89 75.2 79 5.868 6.234 87 89.1 2.757 2.738
2006 11 148 600 0.358 0.558 -10.14 -10 73 76.8 6.179 6.542 87.7 89 2.761 2.739
2006 11 148 700 0.842 1.375 -9.83 -9.72 71.3 75.1 6.646 6.976 91.2 92.8 2.758 2.738
2006 11 148 800 1.157 2.015 -9.5 -9.41 70.2 73.8 7.36 7.68 93 95.4 2.757 2.738
2006 11 148 900 1.472 2.7 -9.09 -9.01 70.2 73.7 8.29 8.63 100.8 102.7 2.755 2.736
2006 11 148 1000 1.925 3.641 -8.56 -8.48 70.9 74.4 8.11 8.44 101.7 104.2 2.754 2.734
2006 11 148 1100 2.549 4.977 -7.72 -7.67 71.5 75.1 8.03 8.35 103.1 105.7 2.75 2.73
2006 11 148 1200 3.103 6.237 -6.729 -6.694 72.2 76.2 7.92 8.25 107.8 109.9 2.746 2.725
2006 11 148 1300 3.446 7.13 -5.698 -5.685 73.7 77.9 7.6 7.92 107 109.6 2.742 2.721
2006 11 148 1400 3.675 7.79 -4.488 -4.483 73.6 77.9 7.31 7.61 108.9 111.7 2.735 2.715
2006 11 148 1500 3.746 8.13 -3.466 -3.459 74.8 79.2 6.866 7.15 111.4 114.7 2.731 2.71
2006 11 148 1600 3.758 8.36 -2.507 -2.485 74.7 79.2 6.564 6.834 113.2 116.2 2.726 2.705
2006 11 148 1700 3.508 7.99 -1.842 -1.809 75.8 80.4 6.447 6.713 112.5 115.1 2.722 2.703
2006 11 148 1800 3.208 7.45 -1.264 -1.206 76.2 80.9 6.023 6.276 114.8 119 2.719 2.7
2006 11 148 1900 2.84 6.746 -0.914 -0.828 76.4 81.3 5.162 5.379 117.2 120.4 2.717 2.698
2006 11 148 2000 2.393 5.817 -1.033 -0.931 78.2 83.3 4.635 4.868 117.7 120.7 2.717 2.698
2006 11 148 2100 1.9 4.735 -1.646 -1.521 79.8 84.9 4.147 4.393 113.9 117.6 2.719 2.701
2006 11 148 2200 1.424 3.626 -2.545 -2.421 79.3 84.2 4.866 5.152 106.6 109.3 2.723 2.706
2006 11 148 2300 0.991 2.527 -3.358 -3.219 78.3 83.1 5.386 5.683 104.6 108.1 2.727 2.71
2006 11 149 0 0.638 1.589 -4.31 -4.163 80.4 85.3 6.305 6.614 104.6 107.5 2.731 2.715
2006 11 149 100 0.336 0.859 -5.157 -5.019 82.2 87 7.41 7.75 102.2 104.6 2.735 2.719
2006 11 149 200 0.169 0.278 -6.005 -5.868 83.5 88.2 7.69 8.02 101.7 103.2 2.738 2.724
2006 11 149 300 0.104 0.166 -6.783 -6.639 83.5 87.5 8.23 8.59 98.7 101.6 2.743 2.728
2006 11 149 400 0.107 0.165 -7.37 -7.25 83.2 87.2 8.85 9.2 97.9 100.2 2.745 2.732
2006 11 149 500 0.177 0.287 -7.86 -7.75 82.9 87.2 9.33 9.67 98.7 100.4 2.747 2.734
2006 11 149 600 0.411 0.593 -8.7 -8.62 83.4 87.9 10.09 10.49 94.4 96.5 2.752 2.74
2006 11 149 700 0.768 1.168 -8.94 -8.85 83.7 88.3 10.48 10.92 91.1 92.9 2.752 2.742
2006 11 149 800 1.205 2.01 -8.61 -8.53 83.2 87.6 9.98 10.4 92.3 94.7 2.751 2.74
2006 11 149 900 1.698 3.011 -7.9 -7.83 81.5 85.9 9.51 9.9 93.4 96.5 2.749 2.737
2006 11 149 1000 2.217 4.121 -6.972 -6.903 80.5 85.1 9.35 9.75 93 94.8 2.743 2.733
2006 11 149 1100 2.71 5.229 -5.733 -5.676 79.4 84 8.78 9.13 97.3 99.4 2.74 2.727
2006 11 149 1200 3.137 6.254 -4.252 -4.21 78.8 83.5 8.32 8.63 101.2 104.1 2.734 2.72
2006 11 149 1300 3.465 7.13 -2.87 -2.847 79.6 84.2 7.78 8.1 108.6 112 2.726 2.716
2006 11 149 1400 3.685 7.79 -1.745 -1.72 80.1 84.7 8.33 8.69 110.4 114.4 2.722 2.714
2006 11 149 1500 3.771 8.18 -0.792 -0.763 80.7 85.5 7.98 8.33 115.6 117.7 2.72 2.704
2006 11 149 1600 3.716 8.27 -0.08 -0.039 81 85.9 7.69 8.03 116.6 118.8 2.715 2.7
2006 11 149 1700 3.524 8.01 0.436 0.498 81 86 7.27 7.59 119.9 123.1 2.713 2.697
2006 11 149 1800 3.219 7.42 0.857 0.939 80.2 85.2 6.95 7.26 123.1 127.1 2.712 2.695
2006 11 149 1900 2.821 6.621 1.161 1.249 79.1 84.2 6.613 6.893 127.5 131 2.712 2.694
2006 11 149 2000 2.356 5.653 1.198 1.282 79.1 84.1 6.856 7.15 130 133.2 2.712 2.694
2006 11 149 2100 1.867 4.591 0.898 1 80.8 85.8 7.16 7.49 118.9 122.1 2.712 2.696
2006 11 149 2200 1.404 3.533 0.464 0.562 81 86 7.78 8.13 113.9 117.8 2.712 2.698
2006 11 149 2300 0.978 2.465 -0.23 -0.126 79.5 84.4 8.45 8.81 113.3 116.8 2.716 2.702
2006 11 150 0 0.626 1.536 -1.091 -0.983 78.2 82.9 8.99 9.39 112.9 116.8 2.72 2.707
2006 11 150 100 0.33 0.824 -2.13 -2.014 77.2 81.7 9.65 10.07 113.9 117 2.723 2.712
2006 11 150 200 0.168 0.273 -3.036 -2.915 75.7 80 10.4 10.83 112.6 116 2.728 2.717
2006 11 150 300 0.106 0.166 -4.071 -3.922 80.7 84.5 10.43 10.93 113.1 117.1 2.735 2.723
2006 11 150 400 0.104 0.16 -4.76 -4.63 82.8 86.9 10.31 10.79 110.8 114.8 2.737 2.733
2006 11 150 500 0.177 0.275 -4.841 -4.709 82.4 86.8 10.83 11.34 113.2 115.1 2.736 2.73
2006 11 150 600 0.433 0.594 -4.999 -4.869 82.3 86.7 10.82 11.34 113.4 116.4 2.74 2.73
2006 11 150 700 0.781 1.159 -4.836 -4.707 81.3 85.7 10.8 11.34 114.8 117.7 2.739 2.729
2006 11 150 800 0.919 1.522 -4.551 -4.427 81 85.4 10.3 10.82 114.3 118.2 2.738 2.728
2006 11 150 900 1.145 2.055 -4.083 -3.958 80.6 85 9.61 10.08 116.1 121.2 2.735 2.724
2006 11 150 1000 1.985 3.629 -3.026 -2.907 79.6 84 8.95 9.42 122 125.4 2.729 2.72
2006 11 150 1100 1.354 2.761 -2.048 -1.946 81.3 85.8 8.07 8.48 123.6 126.8 2.726 2.715
2006 11 150 1200 3.027 6.105 -0.881 -0.806 79.8 84.4 8.68 9.08 124.5 128.2 2.72 2.709
2006 11 150 1300 2.946 6.022 -0.319 -0.251 81.2 85.8 10.48 10.94 130.4 134.3 2.718 2.707
2006 11 150 1400 3.735 7.82 -0.033 0.012 82.2 87.1 11.29 11.77 130.6 134.5 2.718 2.706
2006 11 150 1500 3.796 8.12 0.134 0.184 81.5 86.4 10.72 11.19 127.8 132 2.717 2.707
2006 11 150 1600 3.618 7.78 0.423 0.479 80.1 84.9 10.06 10.49 127.5 130.6 2.716 2.707
2006 11 150 1700 3.195 6.915 0.737 0.806 79.4 84.2 8.95 9.34 125.6 129.4 2.716 2.706
2006 11 150 1800 2.873 6.231 0.805 0.875 78.8 83.6 8.77 9.14 127.1 130.2 2.715 2.706
2006 11 150 1900 2.925 6.397 0.879 0.956 78 82.7 8.27 8.63 125 129.1 2.714 2.706
2006 11 150 2000 2.201 4.72 0.715 0.786 78.7 83.2 8.55 8.93 123.6 126.7 2.716 2.708
2006 11 150 2100 1.814 3.885 0.626 0.697 79.5 84 8.38 8.75 118.9 123.8 2.716 2.709
2006 11 150 2200 1.353 2.881 0.316 0.38 81.3 85.8 8.12 8.49 116.2 120.4 2.715 2.71
2006 11 150 2300 0.839 1.844 -0.334 -0.26 82.7 87.2 8.47 8.87 117.1 120.9 2.721 2.713
2006 11 151 0 0.597 1.371 -1.134 -1.043 83.4 88 8.49 8.89 118.8 122.7 2.723 2.717
2006 11 151 100 0.338 0.704 -1.778 -1.683 84.6 89.1 8.41 8.81 123.3 127.2 2.727 2.721
2006 11 151 200 0.527 0.955 -1.471 -1.395 82.4 86.8 9.22 9.6 133 136.5 2.726 2.719
2006 11 151 300 0.217 0.419 -1.635 -1.57 82.8 87.2 8.49 8.83 129.7 133.8 2.727 2.72
2006 11 151 400 0.098 0.196 -1.872 -1.786 84.2 88.8 8.18 8.53 130.2 134 2.728 2.72
2006 11 151 500 0.069 0.146 -2.508 -2.421 88.6 93.4 8.31 8.65 130.2 133.5 2.731 2.724
2006 11 151 600 0.179 0.305 -3.141 -3.051 91.6 96.4 7.76 8.08 128.6 132.5 2.735 2.726
2006 11 151 700 0.571 0.901 -3.531 -3.433 90.6 95.5 7.11 7.42 125.7 128.7 2.735 2.729
2006 11 151 800 0.751 1.39 -3.26 -3.203 89.1 93.9 7.01 7.3 125.2 128.4 2.735 2.728
2006 11 151 900 0.907 1.864 -2.76 -2.728 90.3 95.2 7.59 7.89 124.1 128.4 2.732 2.725
2006 11 151 1000 1.221 2.556 -2.903 -2.888 91.6 96.6 8.4 8.71 126.2 129.8 2.733 2.726
2006 11 151 1100 1.564 3.287 -3.039 -3.029 90.5 95.5 8.35 8.66 122.6 126.1 2.732 2.727
2006 11 151 1200 2.107 4.4 -2.705 -2.701 89.8 94.8 7.84 8.14 120.7 124 2.731 2.726
2006 11 151 1300 2.534 5.293 -2.08 -2.075 85 90 7.96 8.28 119 122.3 2.727 2.723
2006 11 151 1400 3.068 6.454 -1.481 -1.471 81.5 86.4 7.77 8.06 122.2 125.6 2.725 2.72
2006 11 151 1500 4.358 9.2 -0.729 -0.742 78.5 83.7 7.73 8.01 128.6 132.7 2.724 2.718
2006 11 151 1600 3.66 7.78 -0.567 -0.593 80.3 85.5 8.31 8.61 131.6 134.7 2.725 2.717
2006 11 151 1700 3.244 6.997 -0.334 -0.365 82.4 87.7 7.11 7.39 137.8 141.5 2.723 2.715
2006 11 151 1800 2.802 6.071 -0.189 -0.221 84.1 89.7 5.719 5.924 141.5 144.8 2.722 2.714
2006 11 151 1900 2.909 6.598 -0.155 -0.114 83.7 89.1 4.954 5.146 127.5 131 2.721 2.714
2006 11 151 2000 2.406 5.635 -0.083 -0.043 83.1 88.5 5.294 5.503 130 134 2.723 2.714
2006 11 151 2100 1.648 3.92 -0.17 -0.109 81.4 86.4 4.861 5.08 119.7 123.4 2.722 2.715
2006 11 151 2200 0.953 2.103 -0.687 -0.656 82 86.8 3.952 4.127 96.9 99.1 2.722 2.718
2006 11 151 2300 0.568 1.255 -1.836 -1.773 81.4 86 5.387 5.654 115.5 118.4 2.73 2.725
2006 11 152 0 0.507 1.054 -2.388 -2.334 80.6 85 6.549 6.841 110.9 114.6 2.733 2.728
2006 11 152 100 0.228 0.464 -3.199 -3.136 78.3 82.6 6.827 7.11 102 103.2 2.734 2.732
2006 11 152 200 0.141 0.289 -4.19 -4.141 78.9 83.4 7.5 7.79 99.5 102.1 2.739 2.737
2006 11 152 300 0.084 0.17 -4.88 -4.819 77.1 81.5 8.61 8.95 102 104.6 2.742 2.742
2006 11 152 400 0.076 0.147 -5.919 -5.851 76.3 80.8 9.4 9.77 100.4 102.4 2.746 2.746
2006 11 152 500 0.146 0.261 -6.647 -6.585 76.1 80.5 10.21 10.59 99.8 101.6 2.75 2.751
2006 11 152 600 0.414 0.649 -7.09 -7.03 75.5 79.7 10.99 11.41 100.1 102.5 2.754 2.755
2006 11 152 700 0.837 1.296 -7.53 -7.47 75.2 79.4 10.82 11.22 100.2 101.7 2.755 2.757
2006 11 152 800 1.247 2.038 -7.5 -7.44 75.3 79.5 10.44 10.84 104.4 106.7 2.758 2.758
2006 11 152 900 1.759 3.03 -7.11 -7.06 75.2 79.6 10.33 10.75 106.3 108.7 2.755 2.756
2006 11 152 1000 2.267 4.094 -6.629 -6.593 74.3 78.8 10.32 10.71 107.3 110.2 2.754 2.754
2006 11 152 1100 2.878 5.427 -6.276 -6.266 74.7 79.2 10.54 10.96 111.5 114 2.752 2.753
2006 11 152 1200 3.028 5.945 -5.659 -5.659 76 80.7 10.65 11.08 112.4 116.1 2.75 2.748
2006 11 152 1300 3.473 6.892 -4.886 -4.901 77.3 82 9.35 9.73 117.6 120.4 2.747 2.746
2006 11 152 1400 3.609 7.31 -3.96 -3.981 78 82.9 8.65 9.01 119.2 121.9 2.742 2.742
2006 11 152 1500 3.946 8.19 -2.934 -2.959 79.3 84.4 8.38 8.74 119.4 124.1 2.739 2.735
2006 11 152 1600 3.63 7.7 -2.356 -2.373 80.1 85.1 8.56 8.9 124.9 129.2 2.736 2.734
2006 11 152 1700 3.613 7.86 -1.752 -1.76 80.5 85.7 8.01 8.31 127.9 130.8 2.735 2.73
2006 11 152 1800 3.315 7.35 -1.17 -1.174 81.8 87.2 6.599 6.853 131.2 133.8 2.731 2.726
2006 11 152 1900 2.885 6.563 -0.7 -0.664 84.5 89.9 6.548 6.803 127.5 130.5 2.727 2.723
2006 11 152 2000 2.441 5.686 -0.578 -0.53 85 90.4 6.421 6.692 122.4 126.7 2.726 2.723
2006 11 152 2100 1.917 4.589 -0.903 -0.85 84.6 89.9 6.438 6.726 118.8 121.7 2.726 2.724
2006 11 152 2200 1.439 3.553 -1.621 -1.571 83.5 88.6 6.418 6.695 115.8 119.6 2.729 2.727
2006 11 152 2300 1.029 2.551 -2.444 -2.386 82.4 87.5 6.636 6.942 113.7 115.2 2.734 2.732
2006 11 153 0 0.659 1.588 -3.247 -3.173 82.3 87.2 6.51 6.82 109.4 112.5 2.737 2.736
2006 11 153 100 0.416 1.003 -3.948 -3.86 82.3 87 6.964 7.28 108.2 111.5 2.741 2.739
2006 11 153 200 0.222 0.379 -4.64 -4.53 83 87.6 6.581 6.895 103.1 105.3 2.744 2.742
2006 11 153 300 0.137 0.238 -5.08 -4.973 83.4 87.8 7.47 7.81 102.6 105.3 2.745 2.745
2006 11 153 400 0.12 0.208 -5.504 -5.385 83.4 87.9 7.08 7.42 106.1 108.8 2.747 2.745
2006 11 153 500 0.224 0.328 -5.638 -5.508 82.7 87.6 6.971 7.33 103.7 106.6 2.748 2.748
2006 11 153 600 0.451 0.63 -5.511 -5.397 80.3 85 8.09 8.46 102.9 105.9 2.748 2.747
2006 11 153 700 0.841 1.29 -5.628 -5.529 77.6 82.2 8.56 8.92 103.9 106.7 2.749 2.748
2006 11 153 800 1.321 2.19 -5.647 -5.576 75.5 80.1 9.81 10.21 102.5 104.9 2.75 2.75
2006 11 153 900 1.727 2.997 -5.483 -5.423 74.9 79.4 11 11.4 99.9 102 2.749 2.75
2006 11 153 1000 2.317 4.208 -4.995 -4.946 74.2 78.7 11.6 12.04 99.5 101.8 2.746 2.748
2006 11 153 1100 2.659 4.968 -4.26 -4.218 72.3 76.6 11.81 12.25 99.6 101.9 2.742 2.745
2006 11 153 1200 3.152 6.054 -3.572 -3.546 71.7 76 11.29 11.73 103.4 106.1 2.742 2.741
2006 11 153 1300 3.483 6.887 -2.679 -2.665 73.6 78 10.81 11.27 110.4 112.8 2.737 2.735
2006 11 153 1400 3.704 7.51 -1.825 -1.824 77.4 82.3 10.18 10.63 120.6 126 2.736 2.73
2006 11 153 1500 3.782 7.86 -0.445 -0.436 78.9 83.9 10.24 10.7 122.5 126.9 2.728 2.724
2006 11 153 1600 3.013 6.399 0.44 0.469 81.4 86.3 10.46 10.91 126.7 129.6 2.724 2.719
2006 11 153 1700 2.581 5.518 0.57 0.575 89.2 94.8 10.38 10.83 141.8 146.6 2.725 2.717
2006 11 153 1800 2.036 4.423 -0.006 -0.025 96.9 102.8 9.27 9.55 146.6 148.8 2.725 2.717
2006 11 153 1900 2.677 5.725 -0.01 -0.023 95.1 100.7 9.14 9.11 150.7 155 2.721 2.718
2006 11 153 2000 1.761 3.738 0.25 0.252 94.5 99.9 8.31 8.57 146.1 149.3 2.721 2.716
2006 11 153 2100 1.631 3.488 0.435 0.44 92.3 97.6 7.98 8.11 148.5 152.3 2.718 2.714
2006 11 153 2200 1.293 2.742 0.237 0.236 94.2 99.5 6.889 7.11 145.2 150.5 2.718 2.715
2006 11 153 2300 0.765 1.605 0.184 0.19 95.1 100.3 4.999 5.209 136.5 140 2.717 2.715
2006 11 154 0 0.322 0.718 -1.164 -1.095 92.5 97.2 5.168 5.445 111.7 114.4 2.718 2.721
2006 11 154 100 0.202 0.445 -1.635 -1.516 91 95.6 6.364 6.707 115.7 119.8 2.72 2.726
2006 11 154 200 0.149 0.31 -1.724 -1.608 88.9 93.2 8.11 8.51 120.8 124.4 2.722 2.726
2006 11 154 300 0.097 0.2 -2.174 -2.041 87.7 92 6.749 7.11 110.9 114.7 2.731 2.729
2006 11 154 400 0.089 0.181 -1.278 -1.192 88.8 93.3 6.682 6.988 113.1 116.7 2.724 2.723
2006 11 154 500 0.101 0.204 -1.748 -1.653 89.1 93.4 7.28 7.63 118.6 122.7 2.726 2.726
2006 11 154 600 0.144 0.301 -1.712 -1.643 86 90.4 6.913 7.2 109.5 112.6 2.725 2.726
2006 11 154 700 0.39 0.796 -1.863 -1.812 86.1 90.5 7.55 7.86 112.7 116.1 2.728 2.727
2006 11 154 800 0.591 1.197 -2.229 -2.19 89.1 93.7 8.4 8.76 121.6 125.6 2.726 2.729
2006 11 154 900 1.235 2.409 -2.276 -2.224 89.7 94.2 9.63 10.06 119.1 123 2.726 2.731
2006 11 154 1000 1.657 3.206 -2.056 -1.995 85.9 90.4 8.68 9.03 123.7 126.8 2.728 2.729
2006 11 154 1100 2.562 4.84 -2.258 -2.205 85 89.6 10.03 10.44 127.8 132 2.732 2.731
2006 11 154 1200 3.153 6.137 -2.041 -2.001 84.8 89.5 10.64 11.08 128.5 132.5 2.733 2.731
2006 11 154 1300 3.08 6.207 -1.393 -1.372 84.9 89.7 10.04 10.45 130.3 133.6 2.73 2.727
2006 11 154 1400 2.555 5.379 -0.757 -0.75 83.7 88.6 8.08 8.39 136.4 140 2.725 2.723
2006 11 154 1500 3.771 8 -0.2 -0.214 80.2 85.4 7.98 8.26 136.9 140.4 2.718 2.721
2006 11 154 1600 3.548 7.64 -0.057 -0.041 79 84 8.06 8.35 131.4 134.7 2.717 2.721
2006 11 154 1700 3.391 7.35 -0.025 0 79.1 83.9 8.45 8.78 132.8 135.2 2.719 2.72
2006 11 154 1800 3.308 7.33 0.071 0.087 79.8 85 8.3 8.65 137 140.5 2.724 2.72
2006 11 154 1900 2.234 5.029 -0.078 -0.083 84.1 89.5 7.37 7.61 144.9 148.7 2.725 2.719
2006 11 154 2000 2.595 5.959 0.049 0.05 82.4 87.8 6.939 7.15 147.7 151.3 2.725 2.719
2006 11 154 2100 1.447 3.355 -0.242 -0.213 84.9 90.1 6.269 6.54 140.4 144.2 2.726 2.72
2006 11 154 2200 1.191 2.799 -0.858 -0.836 87.2 92.5 5.024 5.198 143.9 148.5 2.73 2.723
2006 11 154 2300 1.035 2.267 -0.538 -0.524 88.1 93.2 4.467 4.66 134.2 138.6 2.727 2.721
2006 11 155 0 0.359 0.78 -1.176 -1.128 88.6 93.4 4.879 5.122 133.8 138 2.73 2.724
2006 11 155 100 0.238 0.492 -1.733 -1.696 89.3 94 4.902 5.126 126.8 130.8 2.732 2.726
2006 11 155 200 0.162 0.329 -2.8 -2.741 88.7 93.4 5.363 5.643 121.1 125.2 2.737 2.733
2006 11 155 300 0.121 0.243 -2.614 -2.56 91.6 96.3 5.407 5.676 123.9 128 2.736 2.731
2006 11 155 400 0.109 0.215 -3.335 -3.271 91.9 96.6 5.953 6.253 123.1 126.7 2.739 2.735
2006 11 155 500 0.137 0.27 -3.556 -3.496 91 95.7 6.347 6.664 120.1 123.5 2.741 2.737
2006 11 155 600 0.186 0.371 -3.272 -3.211 93.2 98.1 7.03 7.33 129.3 133.6 2.735 2.735
2006 11 155 700 0.556 1.016 -3.547 -3.486 92.3 97.3 5.503 5.775 121.4 125.7 2.728 2.736
2006 11 155 800 0.705 1.36 -3.087 -3.053 93.4 98.8 5.56 5.784 127.9 131.1 2.723 2.733
2006 11 155 900 0.806 1.597 -3.197 -3.177 93.5 98.7 6.75 7.01 121.6 124.5 2.717 2.733
2006 11 155 1000 2.142 4.036 -3.592 -3.553 86.6 91.4 7.05 7.34 116.1 120.7 2.717 2.739
2006 11 155 1100 2.659 5.155 -3.635 -3.605 82.5 87 7.54 7.83 110.3 113.2 2.728 2.735
2006 11 155 1200 2.998 5.98 -3.11 -3.078 81.5 86 7.66 7.97 115 118.3 2.729 2.729
2006 11 155 1300 3.424 6.981 -2.144 -2.14 78.9 83.4 6.949 7.2 112.2 115.5 2.726 2.724
2006 11 155 1400 3.71 7.76 -1.565 -1.585 75.1 79.7 6.531 6.76 110.2 113.3 2.726 2.721
2006 11 155 1500 3.66 7.85 -0.911 -0.913 74.2 78.9 5.595 5.802 113.7 116.3 2.723 2.718
2006 11 155 1600 3.357 7.32 -0.567 -0.542 75.1 80 5.361 5.564 128 131.8 2.722 2.717
2006 11 155 1700 3.461 7.53 0.057 0.058 71.9 77.3 3.023 3.127 136.7 140.4 2.724 2.716
2006 11 155 1800 3.062 6.663 0.112 0.161 76 80.8 5.329 5.532 124.8 128.6 2.727 2.715
2006 11 155 1900 3.249 7.41 0.136 0.195 77.5 82.7 4.295 4.465 128.3 131.5 2.729 2.715
2006 11 155 2000 2.669 6.313 -0.184 -0.123 81.1 86.5 4.103 4.278 126.2 129.9 2.73 2.716
2006 11 155 2100 1.991 4.879 -0.906 -0.849 84.8 90.3 3.986 4.155 128.2 131.4 2.733 2.719
2006 11 155 2200 1.487 3.741 -1.66 -1.588 85.6 91 3.385 3.594 127.2 130.8 2.737 2.723
2006 11 155 2300 1.058 2.671 -2.557 -2.422 85.7 90.9 2.51 2.752 110.6 113.6 2.747 2.728
2006 11 156 0 0.713 1.739 -3.852 -3.503 87.6 92.5 2.213 2.522 90.2 92.8 2.745 2.734
2006 11 156 100 0.412 1 -5.957 -5.353 87.9 92.5 2.403 2.749 76 77.4 2.753 2.743
2006 11 156 200 0.224 0.382 -7.72 -7.56 86.4 90.7 3.503 3.848 72.2 72.9 2.763 2.752
2006 11 156 300 0.151 0.241 -9.24 -9.05 86.8 90 4.002 4.362 79.4 79.5 2.767 2.759
2006 11 156 400 0.162 0.258 -9.76 -9.47 88.2 91.7 2.836 3.174 107.3 108.5 2.77 2.762
2006 11 156 500 0.28 0.405 -10.29 -10.16 86.2 91 4.438 4.78 81.9 83 2.772 2.764
2006 11 156 600 0.379 0.666 -9.06 -8.99 87.9 92.4 4.816 5.123 84.9 86.5 2.766 2.759
2006 11 156 700 0.674 1.244 -6.396 -6.352 87.2 92 4.681 4.927 93.8 95.7 2.751 2.746
2006 11 156 800 0.624 1.281 -4.786 -4.753 87.6 92.4 4.858 5.082 103.5 105.5 2.741 2.737
2006 11 156 900 0.91 1.903 -4.191 -4.176 87.3 92 5.346 5.559 106.4 108.1 2.738 2.734
2006 11 156 1000 1.591 3.285 -4.345 -4.357 85.4 90.2 6.342 6.583 100.3 102.7 2.739 2.736
2006 11 156 1100 2.575 5.166 -5.209 -5.242 80.9 85.7 7.27 7.56 84.3 85.4 2.743 2.743
2006 11 156 1200 3.183 6.222 -5.598 -5.615 76.1 80.6 7.62 7.92 80.1 81.8 2.747 2.747
2006 11 156 1300 3.505 7.06 -5.26 -5.283 74.1 78.5 6.881 7.15 85.3 87.2 2.747 2.745
2006 11 156 1400 3.72 7.7 -4.305 -4.334 72.6 77 5.523 5.736 90 91.7 2.744 2.74
2006 11 156 1500 3.814 8.09 -3.253 -3.273 71.4 75.9 4.537 4.709 85.8 86.1 2.741 2.734
2006 11 156 1600 3.774 8.22 -2.305 -2.306 70.8 75.5 3.105 3.208 101 102.8 2.744 2.73
2006 11 156 1700 3.601 8.04 -1.987 -1.955 70.6 75.5 2.501 2.578 103.7 106 2.744 2.728
2006 11 156 1800 3.317 7.55 -1.444 -1.399 68.93 74 1.613 1.667 70.4 71.4 2.738 2.727
2006 11 156 1900 2.931 6.821 -0.266 0.063 66.63 70.1 1.325 1.378 63.72 64.71 2.739 2.726
2006 11 156 2000 2.472 5.892 0.231 0.076 70.1 76.2 3.017 3.228 283.5 268.2 2.734 2.726
2006 11 156 2100 1.988 4.876 -0.845 -1.462 78.7 87.9 3.744 3.998 341 338.2 2.735 2.728
2006 11 156 2200 1.512 3.798 -1.182 -1.732 79.3 88.3 3.06 3.302 340.4 313.6 2.736 2.73
2006 11 156 2300 1.084 2.734 -2.76 -2.774 88.4 94.2 2.767 3.005 133.8 112.3 2.74 2.734
2006 11 157 0 0.722 1.763 -4.963 -4.8 93.2 97.4 3.299 3.558 12.88 14.76 2.748 2.743
2006 11 157 100 0.415 1.005 -6.452 -6.321 94.2 98.2 2.246 2.505 50.45 34.99 2.755 2.75
2006 11 157 200 0.239 0.411 -7.83 -7.72 89.8 94.1 1.298 1.564 74.7 53.68 2.763 2.757
2006 11 157 300 0.164 0.261 -9.23 -9.01 85.3 87.6 3.252 3.552 93.9 81.6 2.769 2.763
2006 11 157 400 0.172 0.273 -11.02 -10.93 83.2 86.8 4.27 4.601 65.68 66.82 2.776 2.771
2006 11 157 500 0.298 0.418 -11.84 -11.76 80.4 85 4.654 5.008 70.5 71 2.781 2.777
2006 11 157 600 0.561 0.765 -12.28 -12.18 79.5 83.8 4.75 5.1 74.6 75.8 2.783 2.779
2006 11 157 700 0.895 1.35 -11.72 -11.62 77.8 82 4.685 5.036 75.4 76.3 2.781 2.777
2006 11 157 800 1.318 2.151 -11.22 -11.14 76.9 81.1 4.917 5.243 77.5 78.8 2.78 2.774
2006 11 157 900 1.803 3.124 -10.4 -10.35 76.7 80.9 4.707 5.009 77.5 79 2.776 2.771
2006 11 157 1000 2.301 4.177 -8.73 -8.68 75.9 80 4.639 4.903 86.7 88.2 2.767 2.763
2006 11 157 1100 2.741 5.172 -6.979 -6.959 74.2 78.5 5.003 5.24 102.6 104.9 2.758 2.754
2006 11 157 1200 3.134 6.116 -6.029 -6.04 74.9 79.3 6.031 6.264 108.9 111 2.753 2.749
2006 11 157 1300 3.515 7.07 -5.184 -5.211 75.5 80.1 6.667 6.924 113.1 117.5 2.75 2.745
2006 11 157 1400 3.721 7.69 -4.088 -4.11 76.1 80.9 5.999 6.243 118.5 121.5 2.748 2.74
2006 11 157 1500 3.809 8.07 -3.131 -3.144 75.1 80 5.707 5.948 119.9 123.3 2.741 2.735
2006 11 157 1600 3.759 8.17 -2.399 -2.4 75.7 80.5 5.731 5.975 121.5 125.1 2.743 2.731
2006 11 157 1700 3.581 7.98 -1.654 -1.632 73.5 78.3 5.994 6.236 122.9 126.2 2.738 2.727
2006 11 157 1800 3.289 7.48 -1.008 -1.002 71 75.8 5.297 5.503 133.9 137.7 2.737 2.724
2006 11 157 1900 2.905 6.756 -0.399 -0.342 73.5 78.6 3.055 3.202 129.7 132.8 2.739 2.722
2006 11 157 2000 2.459 5.858 0.485 0.48 76.4 81.7 1.287 1.393 120.6 124.7 2.732 2.72
2006 11 157 2100 1.982 4.846 2.781 2.677 67.72 73 0.249 0.187 179.3 184.3 2.733 2.722
2006 11 157 2200 1.499 3.77 -0.105 0.314 78.9 83.5 1.244 1.341 118.9 117.3 2.733 2.725
2006 11 157 2300 1.076 2.724 -2.141 -2.022 83.9 89.1 2.632 2.848 114.2 117.4 2.739 2.73
2006 11 158 0 0.734 1.801 -4.104 -3.971 84.6 89.6 2.931 3.221 105.2 107.4 2.747 2.739
2006 11 158 100 0.435 1.058 -5.646 -5.453 85.9 90.6 3.217 3.557 98.4 100.7 2.755 2.747
2006 11 158 200 0.243 0.418 -6.593 -6.375 84.5 88.9 3.716 4.074 101.7 104.8 2.758 2.752
2006 11 158 300 0.169 0.265 -7.03 -6.795 83.5 86.6 4.366 4.724 101.5 103.7 2.76 2.754
2006 11 158 400 0.181 0.284 -7.3 -7.1 80.6 84.3 5.037 5.394 99.3 100.8 2.761 2.755
2006 11 158 500 0.307 0.424 -7.7 -7.54 79.1 83.5 5.259 5.609 103.3 105.6 2.764 2.757
2006 11 158 600 0.56 0.76 -7.9 -7.76 78.6 82.9 5.021 5.372 88 90.5 2.765 2.758
2006 11 158 700 0.888 1.339 -7.89 -7.78 79.1 83.5 5.397 5.743 82.8 84.9 2.766 2.76
2006 11 158 800 1.315 2.153 -7.46 -7.38 77.9 82.4 6.735 7.08 83.5 84.5 2.762 2.758
2006 11 158 900 1.799 3.127 -6.983 -6.92 76.1 80.6 7.32 7.68 85.1 86.2 2.758 2.756
2006 11 158 1000 2.299 4.185 -6.457 -6.409 75.3 79.8 8.11 8.48 86.3 87.3 2.756 2.755
2006 11 158 1100 2.775 5.237 -5.876 -5.848 75.3 79.8 7.31 7.63 86.7 88.2 2.753 2.752
2006 11 158 1200 3.182 6.197 -5.197 -5.201 75.2 79.7 6.733 6.993 97 99.1 2.755 2.748
2006 11 158 1300 3.512 7.05 -4.136 -4.164 74.8 79.3 6.357 6.604 102.6 104.5 2.75 2.743
2006 11 158 1400 3.729 7.69 -2.987 -3.021 73.8 78.3 6.201 6.437 108.7 110.7 2.746 2.737
2006 11 158 1500 3.82 8.07 -1.973 -1.997 73.1 77.6 5.647 5.862 113 116.2 2.743 2.731
2006 11 158 1600 3.774 8.19 -1.45 -1.454 71.6 76.3 5.468 5.691 127.3 130.7 2.743 2.728
2006 11 158 1700 3.588 7.99 -1.351 -1.41 72.4 77.6 4.638 4.774 144.3 147.5 2.741 2.728
2006 11 158 1800 3.214 7.3 -1.422 -1.474 75.3 80.6 3.267 3.357 160 162.4 2.742 2.728
2006 11 158 1900 2.576 5.9 -2.404 -2.43 81 86 1.888 2.037 172.4 175.9 2.747 2.733
2006 11 158 2000 2.469 5.65 -2.525 -2.564 80.7 86.5 2.41 2.454 143.8 147.5 2.748 2.734
2006 11 158 2100 1.912 4.351 -2.597 -2.641 82.4 88.1 2.608 2.641 149.1 152.9 2.748 2.734
2006 11 158 2200 1.621 3.658 -3.283 -3.319 90.1 95.7 3.116 3.11 153.1 155.6 2.751 2.736
2006 11 158 2300 1.047 2.285 -4.024 -4.062 94.9 100.3 3.872 3.946 147.3 150.7 2.753 2.739
2006 11 159 0 0.596 1.238 -4.361 -4.397 98.8 103.8 4.68 4.785 143.5 147.3 2.753 2.74
2006 11 159 100 0.335 0.691 -4.771 -4.795 98.7 103.4 4.647 4.793 141.8 144.9 2.753 2.743
2006 11 159 200 0.187 0.389 -4.719 -4.744 98.5 103.2 3.97 4.009 147.1 150.2 2.75 2.742
2006 11 159 300 0.085 0.183 -4.62 -4.635 98.5 103.3 4.149 4.25 145.7 149 2.748 2.742
2006 11 159 400 0.08 0.17 -4.589 -4.601 98.5 103.3 5.069 5.208 143.2 146 2.748 2.74
2006 11 159 500 0.134 0.278 -4.618 -4.632 98.3 103.2 5.578 5.794 136 140.1 2.747 2.741
2006 11 159 600 0.301 0.621 -5.196 -5.223 97.5 102.4 6.304 6.553 129.9 133.7 2.749 2.744
2006 11 159 700 0.807 1.667 -5.854 -5.897 95.9 101.2 7.15 7.42 115.9 119 2.751 2.748
2006 11 159 800 0.8 1.671 -5.935 -5.983 95 100.4 7.43 7.7 114.7 117.8 2.752 2.749
2006 11 159 900 1.066 2.255 -5.579 -5.599 93.9 99.4 7.76 8.05 113.6 117.2 2.75 2.748
2006 11 159 1000 1.191 2.503 -5.047 -5.049 92.6 97.9 7.86 8.17 113.4 115.5 2.75 2.746
2006 11 159 1100 1.993 4.195 -4.913 -4.945 90.2 95.2 8.52 8.88 112.9 114.8 2.747 2.746
2006 11 159 1200 2.055 4.371 -5.091 -5.12 89.4 94.3 9.18 9.55 114 116.1 2.748 2.747
2006 11 159 1300 2.651 5.646 -5.21 -5.242 87.4 92.2 9.74 10.12 111.8 113.8 2.748 2.75
2006 11 159 1400 2.834 6.028 -4.522 -4.552 87.1 92 9.41 9.78 112.8 115.5 2.747 2.747
2006 11 159 1500 3.117 6.635 -3.263 -3.278 86.6 91.5 8.44 8.8 116.2 119.4 2.741 2.741
2006 11 159 1600 2.539 5.508 -2.517 -2.519 88.2 93.2 7.49 7.79 127.6 131.2 2.739 2.735
2006 11 159 1700 2.176 4.8 -2.394 -2.421 95.5 100.9 6.568 6.397 163.1 165.4 2.74 2.733
2006 11 159 1800 1.799 3.994 -2.698 -2.726 95.9 101.1 6.081 5.938 172.2 172 2.727 2.734
2006 11 159 1900 1.69 3.756 -2.891 -2.923 96 101.1 4.962 4.943 179.5 178.4 2.717 2.734
2006 11 159 2000 1.779 3.9 -2.99 -3.025 95.7 100.7 4.321 4.489 183.5 182.1 2.711 2.734
2006 11 159 2100 1.299 2.838 -3.034 -3.063 96.4 101.4 3.809 3.872 179.3 177.8 2.701 2.734
2006 11 159 2200 0.953 2.081 -3.155 -3.171 97 102.2 3.816 3.666 170.5 170.8 2.691 2.735
2006 11 159 2300 0.713 1.551 -3.196 -3.208 96.8 102 3.771 3.7 150.6 153.8 2.688 2.735
2006 11 160 0 0.404 0.888 -3.19 -3.201 97.7 103 3.595 3.747 134.3 137.2 2.685 2.734
2006 11 160 100 0.322 0.699 -3.194 -3.199 97.8 103 4.168 4.347 123.4 127.2 2.673 2.721
2006 11 160 200 0.156 0.34 -3.249 -3.248 98 103 4.116 4.304 122.3 125.4 2.672 2.714
2006 11 160 300 0.117 0.253 -3.469 -3.44 98.1 103 3.644 3.855 122.1 125.5 2.673 2.714
2006 11 160 400 0.099 0.218 -3.323 -3.309 97.5 102.3 4.207 4.404 117.7 120.6 2.672 2.713
2006 11 160 500 0.148 0.32 -3.042 -3.035 96.9 101.9 4.556 4.763 117.8 120.8 2.672 2.699
2006 11 160 600 0.223 0.482 -2.871 -2.863 96.2 101.2 5.089 5.326 117.9 121.5 2.671 2.705
2006 11 160 700 0.31 0.678 -2.8 -2.793 96.3 101.3 4.892 5.1 115 118.5 2.673 2.703
2006 11 160 800 0.525 1.125 -2.775 -2.751 95.8 100.7 4.717 4.93 106.8 109.6 2.674 2.7
2006 11 160 900 0.961 2.049 -2.698 -2.648 92.6 97.4 4.232 4.453 94.1 95.8 2.674 2.701
2006 11 160 1000 1.321 2.87 -2.149 -2.106 93 97.9 5.145 5.38 115.9 118.8 2.672 2.7
2006 11 160 1100 1.655 3.636 -1.812 -1.791 94.1 99.2 5.582 5.805 131.7 135.2 2.663 2.685
2006 11 160 1200 1.985 4.42 -1.671 -1.674 93.3 98.6 5.629 5.799 141.9 145.8 2.672 2.696
2006 11 160 1300 2.059 4.642 -1.721 -1.754 96.6 102 5.37 5.298 152.4 155.6 2.675 2.705
2006 11 160 1400 2.508 5.685 -1.354 -1.395 96.1 101.8 4.065 3.943 154.9 156.9 2.674 2.706
2006 11 160 1500 2.699 6.235 -0.804 -0.887 93.1 99.2 2.999 3.033 150 152.7 2.671 2.704
2006 11 160 1600 2.879 6.775 -0.866 -0.909 94.3 100 4.35 4.24 154.6 157.4 2.667 2.695
2006 11 160 1700 2.462 5.853 -1.516 -1.548 96.8 102.1 5.67 5.702 176 175.7 2.647 2.686
2006 11 160 1800 2.35 5.561 -1.541 -1.582 97.8 103.2 4.963 4.937 183.5 183.1 2.643 2.689
2006 11 160 1900 1.959 4.696 -1.339 -1.371 98.1 103.6 4.317 4.193 179.4 178.4 2.635 2.674
2006 11 160 2000 1.579 4.015 -1.248 -1.27 99 104.1 3.268 3.113 171.1 171.6 2.636 2.675
2006 11 160 2100 1.024 3.03 -1.402 -1.422 100.1 104.9 3.92 3.949 177.5 176.7 2.624 2.666
2006 11 160 2200 0.751 2.16 -1.804 -1.823 100.5 105.2 3.98 4.067 183.7 182.1 2.616 2.652
2006 11 160 2300 0.514 1.479 -2.343 -2.348 100.3 105 2.689 4.469 204.3 212.6 2.615 2.65
2006 11 161 0 0.325 0.926 -2.567 -2.568 100.3 105.1 1.834 3.165 204.1 212.3 2.611 2.646
2006 11 161 100 0.165 0.476 -2.724 -2.733 100.4 105.2 3.323 3.133 169.2 169.8 2.609 2.644
2006 11 161 200 0.194 0.549 -2.905 -2.914 100.4 105.1 3.272 3.107 178.6 177.9 2.607 2.643
2006 11 161 300 0.08 0.232 -3.013 -3.019 100.3 105.1 2.711 2.755 182.6 181.8 2.609 2.644
2006 11 161 400 0.067 0.197 -3.367 -3.373 100 104.8 2.381 2.897 191.3 192.6 2.607 2.642
2006 11 161 500 0.087 0.252 -3.892 -3.898 99.4 104.3 1.416 2.132 199.5 204.4 2.612 2.649
2006 11 161 600 0.14 0.403 -4.086 -4.089 99.3 104.1 2.486 2.471 178.7 179.7 2.613 2.65
2006 11 161 700 0.275 0.784 -4.125 -4.128 99.2 103.9 3.326 3.18 175.4 175.4 2.6 2.635
2006 11 161 800 0.439 1.249 -4.076 -4.085 99.2 103.8 3.365 3.246 178.3 178.3 2.593 2.623
2006 11 161 900 0.731 2.078 -3.924 -3.954 99.1 103.6 2.279 2.645 191.4 192.6 2.578 2.613
2006 11 161 1000 1.082 3.065 -3.836 -3.851 98.8 103.2 1.552 2.566 203.4 210.3 2.576 2.614
2006 11 161 1100 1.495 4.249 -3.769 -3.777 98.4 102.9 2.197 3.793 204.8 212.5 2.574 2.61
2006 11 161 1200 1.884 5.327 -3.823 -3.843 98 102.3 1.829 3.073 202.4 209.1 2.577 2.612
2006 11 161 1300 2.621 7.3 -4.045 -4.077 96.6 101 2.271 3.116 196.5 200.8 2.58 2.615
2006 11 161 1400 2.683 7.37 -4.225 -4.282 96 100.4 2.357 3.04 193.9 195.8 2.588 2.624
2006 11 161 1500 2.624 7.09 -4.211 -4.286 95.8 100 2.536 2.966 190.7 191.9 2.591 2.627
2006 11 161 1600 2.725 7.1 -4.266 -4.308 95 100 1.704 2.562 201.1 205.7 2.592 2.627
2006 11 161 1700 2.901 7.38 -4.347 -4.385 94.3 99.3 2.006 2.512 193.9 196.2 2.592 2.627
2006 11 161 1800 2.784 6.816 -4.501 -4.548 94.2 99.2 2.803 3.051 185.9 185.2 2.594 2.629
2006 11 161 1900 2.446 5.748 -4.582 -4.578 94.8 99.8 3.429 3.34 174.1 174.2 2.596 2.631
2006 11 161 2000 2.571 5.956 -4.481 -4.501 94.9 99 3.756 3.565 164 164.9 2.597 2.632
2006 11 161 2100 1.811 4.086 -4.661 -4.663 95.5 99.5 3.722 3.516 162.4 163.7 2.598 2.638
2006 11 161 2200 1.252 2.791 -5.001 -5.065 96.3 100.8 3.852 3.723 156.1 158.8 2.6 2.64
2006 11 161 2300 0.923 2.051 -5.233 -5.242 96.4 100.5 3.531 3.625 138.6 141.2 2.601 2.637
2006 11 162 0 0.569 1.257 -5.208 -5.22 97 101.4 2.87 3.012 120.6 124 2.601 2.638
2006 11 162 100 0.317 0.695 -4.989 -5.019 97.7 102.3 2.613 2.739 123.1 126.5 2.601 2.637
2006 11 162 200 0.172 0.378 -4.988 -4.975 98 102.5 2.456 2.607 134.8 138.5 2.601 2.645
2006 11 162 300 0.13 0.284 -5.397 -5.397 97.7 102.3 3.262 3.422 132 135.8 2.603 2.649
2006 11 162 400 0.109 0.24 -6.118 -5.969 96.7 100 3.605 3.792 126.1 128.9 2.606 2.655
2006 11 162 500 0.103 0.232 -6.624 -6.455 95.9 97.9 4.07 4.298 118.3 121.5 2.609 2.659
2006 11 162 600 0.231 0.499 -6.607 -6.508 95.7 98.4 2.616 2.79 110.6 113.6 2.61 2.662
2006 11 162 700 0.651 1.178 -7.37 -7.26 93.6 96.4 3.129 3.356 90.3 92.7 2.613 2.658
2006 11 162 800 1.349 2.288 -11.51 -11.41 89.7 92.2 5.795 6.152 73.4 74.8 2.636 2.667
2006 11 162 900 1.847 3.327 -11.56 -11.4 86.6 88.3 6.431 6.802 75.3 76.7 2.637 2.668
2006 11 162 1000 2.352 4.448 -10.46 -10.4 81.2 83.9 7.16 7.55 74.7 76 2.633 2.669
2006 11 162 1100 2.829 5.606 -8.67 -8.62 77.3 80.2 7.49 7.87 84.4 86 2.63 2.661
2006 11 162 1200 3.228 6.652 -7.61 -7.59 77.8 81.5 9.17 9.6 100.7 102.4 2.639 2.659
2006 11 162 1300 3.548 7.56 -6.685 -6.684 78.5 82.8 9.04 9.46 106.7 108.1 2.645 2.654
2006 11 162 1400 3.722 8.17 -5.652 -5.657 78.4 83 8.51 8.87 107.9 111.6 2.635 2.646
2006 11 162 1500 3.841 8.65 -4.728 -4.729 78.7 83.3 8.27 8.64 111.9 113.9 2.633 2.633
2006 11 162 1600 3.773 8.71 -3.989 -3.975 79 83.7 8.24 8.6 113.3 117.7 2.637 2.642
2006 11 162 1700 3.618 8.53 -3.366 -3.341 79.6 84.2 7.69 8.04 113.8 116.6 2.634 2.653
2006 11 162 1800 3.375 8.1 -2.94 -2.902 80 84.7 7.59 7.93 114.8 118 2.633 2.626
2006 11 162 1900 2.973 7.3 -2.934 -2.881 79.8 84.4 7.85 8.2 112.2 114.4 2.603 2.6
2006 11 162 2000 2.512 6.309 -3.046 -2.971 78.7 83.2 7.75 8.11 113.6 117.5 2.572 2.637
2006 11 162 2100 2.026 5.214 -3.356 -3.27 77.9 82.4 6.956 7.29 111.4 113.4 2.605 2.642
2006 11 162 2200 1.491 3.904 -3.913 -3.809 76.9 81.2 7.1 7.45 108.7 111.3 2.601 2.612
2006 11 162 2300 1.041 2.69 -4.643 -4.517 75 79.2 7.35 7.71 104.6 107.3 2.582 2.616
2006 11 163 0 0.675 1.677 -5.518 -5.388 74.2 78.3 6.995 7.35 103.8 105.2 2.61 2.634
2006 11 163 100 0.422 0.99 -6.164 -6.035 74.3 78.1 8.2 8.62 100.6 102.9 2.621 2.645
2006 11 163 200 0.31 0.61 -6.705 -6.568 74.3 77.8 8.59 9.02 100 102.8 2.622 2.66
2006 11 163 300 0.289 0.544 -6.962 -6.818 73.1 76 8.83 9.27 100.5 102.3 2.614 2.657
2006 11 163 400 0.294 0.516 -7.42 -7.29 72.4 75.3 8.46 8.89 93.6 95.6 2.617 2.666
2006 11 163 500 0.395 0.626 -7.7 -7.58 70.7 73.9 9.12 9.58 89.1 90.9 2.624 2.677
2006 11 163 600 0.518 0.798 -8.35 -8.24 72.5 75.7 9.64 10.15 86.1 87 2.631 2.685
2006 11 163 700 0.916 1.508 -8.28 -8.16 71.9 75.1 10.06 10.56 87.9 89.4 2.631 2.689
2006 11 163 800 1.302 2.367 -7.9 -7.8 72.5 75.7 9.73 10.2 89.2 91.4 2.625 2.682
2006 11 163 900 1.68 3.226 -7.08 -6.991 72.1 75.5 9.49 9.93 89.5 91.5 2.627 2.682
2006 11 163 1000 1.988 3.915 -6.233 -6.138 71.6 75.1 9.63 10.09 91.5 94.6 2.631 2.682
2006 11 163 1100 2.67 5.52 -5.134 -5.057 72.3 75.9 9.38 9.8 92.6 94.7 2.623 2.675
2006 11 163 1200 2.707 5.86 -4.158 -4.082 72.8 76.5 9.52 9.92 98.3 100.2 2.615 2.671
2006 11 163 1300 3 6.543 -3.162 -3.084 73.4 77.3 9.67 10.07 100 103 2.605 2.662
2006 11 163 1400 3.734 8.13 -2.041 -1.982 74.6 78.7 9.76 10.16 103.6 106.7 2.617 2.671
2006 11 163 1500 3.797 8.4 -0.776 -0.734 76.6 81 8.42 8.76 110.1 112.7 2.609 2.631
2006 11 163 1600 3.796 8.54 0.512 0.581 80.4 85.1 7.36 7.7 119.4 123 2.607 2.646
2006 11 163 1700 3.214 7.22 1.18 1.234 77.6 82.4 5.489 5.728 131.7 134.9 2.604 2.648
2006 11 163 1800 3.087 6.853 1.099 1.126 77.3 82.4 5.079 5.283 138.2 142 2.607 2.65
2006 11 163 1900 2.64 5.865 0.878 0.879 79.6 84.8 4.711 4.882 145.6 149.7 2.609 2.65
2006 11 163 2000 1.906 4.135 0.797 0.799 81.7 86.7 2.891 2.991 146.7 150.3 2.608 2.65
2006 11 163 2100 1.594 3.457 0.918 0.946 79.9 84.4 1.947 2.039 118.1 120.8 2.609 2.65
2006 11 163 2200 1.21 2.598 0.728 0.765 82.8 87.2 3.658 3.846 95.7 97.5 2.609 2.651
2006 11 163 2300 0.81 1.73 0.487 0.523 82.5 86.9 5.159 5.415 77.4 79.7 2.612 2.652
2006 11 164 0 0.506 1.071 0.273 0.315 82.7 87 6.353 6.631 90.6 92.3 2.613 2.654
2006 11 164 100 0.307 0.646 0.712 0.772 88.6 93 6.438 6.72 109 112.8 2.61 2.652
2006 11 164 200 0.16 0.341 0.531 0.565 95.8 100.7 5.665 5.909 124.9 127.8 2.613 2.652
2006 11 164 300 0.101 0.214 0.526 0.585 94.9 99.6 5.558 5.82 125.8 128.5 2.613 2.652
2006 11 164 400 0.106 0.224 0.262 0.336 92.9 97.5 5.339 5.604 130.9 134 2.613 2.653
2006 11 164 500 0.139 0.292 -0.285 -0.214 93.4 98 4.563 4.801 125 128.7 2.616 2.656
2006 11 164 600 0.229 0.487 -0.48 -0.429 96 100.8 4.399 4.632 120.5 124.2 2.618 2.657
2006 11 164 700 0.407 0.844 -0.622 -0.564 95.2 99.9 4.835 5.085 98.2 100.5 2.617 2.658
2006 11 164 800 0.731 1.507 -0.888 -0.825 91.4 96 4.845 5.112 82.4 83.2 2.619 2.659
2006 11 164 900 1.11 2.258 -0.672 -0.619 88 92.6 4.813 5.06 79.5 80.6 2.618 2.658
2006 11 164 1000 2.171 4.22 0.229 0.284 82.5 87 5.768 6.02 86.4 87.6 2.616 2.656
2006 11 164 1100 2.395 4.718 0.637 0.688 80.9 85.3 5.78 6.031 97.6 100.2 2.613 2.654
2006 11 164 1200 2.901 5.798 1.057 1.103 81 85.5 6.046 6.288 116.2 119.8 2.612 2.652
2006 11 164 1300 2.509 5.194 1.223 1.284 83.7 88.4 5.934 6.179 125.1 128.1 2.613 2.651
2006 11 164 1400 3.802 7.99 1.595 1.667 82.2 87.2 6.727 6.979 125.6 128.4 2.612 2.65
2006 11 164 1500 3.437 7.16 1.563 1.626 82.1 87 6.324 6.581 121.8 124.9 2.612 2.652
2006 11 164 1600 3.369 7.1 1.521 1.573 81.8 86.6 5.411 5.613 113.5 116.8 2.612 2.656
2006 11 164 1700 3.298 7.09 1.758 1.875 81 86.1 2.707 2.88 110.9 114.1 2.613 2.659
2006 11 164 1800 3.059 6.663 2.299 2.422 78.5 83.2 1.156 1.319 143.9 148.6 2.618 2.665
2006 11 164 1900 2.478 5.339 1.195 1.164 85.5 90 1.46 1.499 184.6 186.5 2.625 2.672
2006 11 164 2000 2.364 5.167 -0.115 -0.154 92.2 97.5 3.294 3.299 159 161.6 2.633 2.679
2006 11 164 2100 1.652 3.801 -0.68 -0.666 96.4 102 3.676 3.812 125 127.2 2.636 2.683
2006 11 164 2200 1.362 3.134 -0.645 -0.625 96.4 101.8 3.7 3.843 121.2 124.3 2.636 2.685
2006 11 164 2300 1.056 2.535 -0.447 -0.424 95.3 100.8 2.858 2.999 96.8 99.2 2.636 2.686
2006 11 165 0 0.649 1.437 -0.021 0.033 94.4 99.4 2.194 2.39 65.41 67.25 2.634 2.684
2006 11 165 100 0.468 0.986 0.665 0.768 91.6 96.2 3.536 3.8 83.6 84.5 2.631 2.681
2006 11 165 200 0.185 0.37 0.312 0.421 93.2 97.8 4.067 4.347 87.6 89.1 2.632 2.683
2006 11 165 300 0.115 0.232 0.445 0.564 94.3 99 5.077 5.379 102.7 104.9 2.631 2.683
2006 11 165 400 0.098 0.202 0.839 0.956 95 99.6 4.081 4.348 105.2 107.5 2.628 2.68
2006 11 165 500 0.305 0.595 1.045 1.145 96.2 100.9 3.654 3.922 108.5 112.6 2.627 2.679
2006 11 165 600 0.218 0.433 1.277 1.373 97.1 101.8 3.069 3.31 108.4 111.3 2.625 2.678
2006 11 165 700 0.292 0.539 1.098 1.184 97.6 102.4 3.941 4.191 112.5 115.7 2.626 2.679
2006 11 165 800 0.769 1.427 1.087 1.145 93.5 98.2 5.172 5.433 119.3 122 2.627 2.68
2006 11 165 900 0.861 1.714 1.171 1.226 91.4 96.1 5.668 5.937 120.3 123.2 2.626 2.679
2006 11 165 1000 1.262 2.597 1.065 1.121 93.2 98 5.173 5.417 120.1 124.1 2.627 2.679
2006 11 165 1100 1.845 3.792 0.791 0.807 94.1 99.5 2.977 3.004 149.1 152.4 2.63 2.68
2006 11 165 1200 2.385 4.948 0.17 0.104 95.9 100.7 2.248 2.291 181.8 183.1 2.636 2.686
2006 11 165 1300 2.386 5.039 -0.289 -0.361 96.5 101.5 2.3 2.39 186.9 188.8 2.644 2.691
2006 11 165 1400 2.396 5.092 -0.297 -0.303 95.7 101.4 1.782 2.106 219.8 226.4 2.646 2.694
2006 11 165 1500 2.366 5.101 -0.47 -0.507 96.6 101.4 2.795 2.899 252.3 255.9 2.653 2.697
2006 11 165 1600 2.69 5.923 -0.51 -0.635 97.3 101.9 3.483 3.678 251.5 255.6 2.658 2.7
2006 11 165 1700 2.92 6.422 -0.773 -0.942 97 102.3 3.808 4 244.8 249 2.657 2.699
2006 11 165 1800 2.866 6.168 -0.973 -1.134 97.1 102.4 3.913 4.1 248.3 252 2.651 2.696
2006 11 165 1900 2.48 5.338 -1.435 -1.594 97.2 102.5 3.959 4.085 242.8 246.7 2.654 2.69
2006 11 165 2000 1.969 4.268 -1.924 -2.048 98 103.1 3.852 3.948 239.9 244.8 2.659 2.688
2006 11 165 2100 1.569 3.429 -2.573 -2.612 97.6 102.7 3.51 3.615 228.6 234.6 2.659 2.686
2006 11 165 2200 1.389 3.019 -2.918 -2.996 97.9 102.8 3.921 4.039 247.7 251.5 2.658 2.687
2006 11 165 2300 0.852 1.843 -3.181 -3.24 98.2 103.1 2.471 2.533 238.1 243.2 2.657 2.689
2006 11 166 0 0.667 1.426 -3.291 -3.283 98.1 103.3 1.321 1.687 213 221.1 2.654 2.687
2006 11 166 100 0.439 0.941 -3.388 -3.402 98.6 103.8 1.401 1.478 185.2 186.5 2.655 2.687
2006 11 166 200 0.215 0.462 -3.664 -3.691 99 104 1.41 1.552 187.9 188.2 2.664 2.689
2006 11 166 300 0.102 0.224 -3.994 -4.015 99 104 0.855 1.397 199.2 206 2.247 2.689
2006 11 166 400 0.065 0.146 -4.231 -4.254 98.9 103.8 1.124 1.414 218.8 226 2.656 2.7
2006 11 166 500 0.147 0.318 -4.311 -4.35 98.9 103.7 2.143 2.222 240.8 245.5 2.657 2.691
2006 11 166 600 0.238 0.513 -4.328 -4.36 98.7 103.6 1.749 1.84 276.4 279.3 2.659 2.697
2006 11 166 700 0.461 0.99 -4.324 -4.357 98.1 103.1 2.155 2.244 271.6 274.1 2.648 2.68
2006 11 166 800 0.722 1.545 -4.412 -4.443 97.4 102.6 2.341 2.426 259.8 262.4 2.645 2.677
2006 11 166 900 1.164 2.447 -4.499 -4.463 96.9 102 2.732 2.817 245.8 249.9 2.645 2.677
2006 11 166 1000 1.826 3.889 -4.379 -4.307 95.8 101 2.859 2.934 248 251.6 2.643 2.675
2006 11 166 1100 2.01 4.409 -4.396 -4.309 95.3 100.1 2.754 2.883 229.8 236.9 2.642 2.673
2006 11 166 1200 2.175 4.824 -4.408 -4.304 94.4 99.2 1.989 2.945 212.8 222.2 2.644 2.675
2006 11 166 1300 2.426 5.426 -4.548 -4.43 93.6 99 1.985 2.849 199.5 205.3 2.642 2.672
2006 11 166 1400 2.757 6.186 -4.832 -4.808 92.8 98.5 4.257 4.206 179 178.3 2.638 2.67
2006 11 166 1500 3.368 7.6 -4.831 -4.812 91.6 97.2 5.106 4.881 169.8 169.7 2.636 2.671
2006 11 166 1600 3.717 8.44 -4.54 -4.528 90.9 96.2 5.308 5.126 174.1 174 2.629 2.664
2006 11 166 1700 3.286 7.43 -4.604 -4.566 91.6 96.5 5.377 5.213 176 175.9 2.634 2.688
2006 11 166 1800 3.188 7.2 -4.543 -4.558 92 96.9 5.55 5.323 169.1 170 2.603 2.669
2006 11 166 1900 2.628 5.895 -4.504 -4.551 92.7 97.5 5.241 5.022 168.5 169.4 2.615 2.68
2006 11 166 2000 2.022 4.516 -4.625 -4.651 94 98.7 5.466 5.302 173.4 172.5 2.625 2.691
2006 11 166 2100 1.479 3.302 -4.748 -4.767 95 100 5.188 4.989 170.3 170.3 2.594 2.695
2006 11 166 2200 1.16 2.579 -4.851 -4.88 95.7 100.9 5.19 5.014 168.1 168.7 2.607 2.673
2006 11 166 2300 0.858 1.876 -5.06 -5.078 96.2 101.2 5.556 5.36 170 170.2 2.619 2.69
2006 11 167 0 0.605 1.314 -5.293 -5.316 96.6 101.7 5.129 4.88 161.9 163.3 2.593 2.694
2006 11 167 100 0.328 0.714 -5.361 -5.377 97.1 102.1 5.295 5.074 161.9 163.7 2.613 2.667
2006 11 167 200 0.158 0.347 -5.404 -5.414 97.5 102.5 4.218 4.151 153.8 157 2.628 2.645
2006 11 167 300 0.081 0.183 -5.437 -5.444 97.7 102.6 3.781 3.895 146.4 149.8 2.632 2.627
2006 11 167 400 0.096 0.213 -5.538 -5.561 97.7 102.6 3.276 3.315 149.3 151.4 2.635 2.629
2006 11 167 500 0.143 0.314 -5.68 -5.658 97.3 102.1 3.36 3.535 125.1 128.1 2.637 2.632
2006 11 167 600 0.268 0.581 -5.441 -5.387 97.2 102 4.207 4.42 129.2 132.3 2.625 2.627
2006 11 167 700 0.514 1.118 -5.381 -5.391 96.8 101.8 5.023 5.231 140.3 143.8 2.607 2.614
2006 11 167 800 0.786 1.719 -4.884 -4.922 96.8 102 4.44 4.614 135.8 138.2 2.597 2.61
2006 11 167 900 1.245 2.719 -4.138 -4.191 96.4 102 4.763 4.948 136.7 139.3 2.58 2.606
2006 11 167 1000 1.728 3.742 -3.565 -3.624 95.5 101.4 4.695 4.876 138 141.6 2.585 2.599
2006 11 167 1100 2.251 4.979 -3.149 -3.174 95.2 100.9 5.729 5.886 145.7 149 2.59 2.603
2006 11 167 1200 2.276 5.058 -3.385 -3.382 94.8 100 6.821 7.02 142.4 146.3 2.588 2.593
2006 11 167 1300 3.343 7.42 -3.302 -3.215 91.9 95.2 7.62 7.93 140.3 143.3 2.607 2.604
2006 11 167 1400 3.288 7.38 -2.871 -2.917 88.5 93.5 7.59 7.87 143 146.5 2.61 2.641
2006 11 167 1500 4.03 9.1 -2.453 -2.51 85.1 90.8 7.97 8.3 141 144.6 2.556 2.648
2006 11 167 1600 3.38 7.63 -2.243 -2.288 87.2 92.5 7.36 7.62 142.8 146.9 2.599 2.61
2006 11 167 1700 3.404 7.66 -2.028 -2.069 88.3 93.6 6.866 7.15 137.5 141 2.609 2.637
2006 11 167 1800 3.026 6.831 -1.638 -1.68 90.4 95.8 6.886 7.16 137.7 140.8 2.616 2.644
2006 11 167 1900 3.191 7.67 -0.942 -0.922 87.4 92.7 6.694 6.96 131.9 135 2.622 2.651
2006 11 167 2000 2.604 6.445 -0.907 -0.853 87 92.1 7.23 7.54 129.8 133.8 2.624 2.644
2006 11 167 2100 2.043 5.202 -1.115 -1.034 86.5 91.5 7.47 7.82 123.6 127.1 2.62 2.654
2006 11 167 2200 1.744 4.411 -1.394 -1.307 85.9 90.7 8.35 8.77 122.8 126.7 2.632 2.66
2006 11 167 2300 0.927 2.194 -1.872 -1.779 85.4 89.9 8.98 9.46 118.3 121.2 2.636 2.662
2006 11 168 0 0.578 1.288 -2.024 -1.926 84.3 88.5 9.11 9.58 113.8 116.2 2.634 2.665
2006 11 168 100 0.373 0.796 -2.221 -2.14 84.1 88.2 9.46 9.96 114.2 117 2.634 2.666
2006 11 168 200 0.279 0.586 -2.711 -2.634 84.2 88.3 9.29 9.76 115 118.3 2.635 2.671
2006 11 168 300 0.151 0.319 -2.79 -2.703 84 88 9.27 9.73 116.5 119.3 2.635 2.672
2006 11 168 400 0.135 0.285 -3.3 -3.223 84.6 88.6 9.36 9.83 117 119.2 2.64 2.674
2006 11 168 500 0.185 0.386 -3.58 -3.506 86.2 90.3 10.82 11.32 111.9 114 2.643 2.678
2006 11 168 600 0.276 0.589 -2.889 -2.825 88.8 93.1 11.39 11.94 114.9 118 2.644 2.678
2006 11 168 700 0.393 0.846 -2.358 -2.295 89.1 93.3 10.91 11.46 120 124.1 2.636 2.679
2006 11 168 800 0.676 1.451 -2.283 -2.25 93.2 98.1 11.35 11.93 121.6 124.9 2.576 2.617
2006 11 168 900 0.866 1.891 -1.737 -1.697 93.2 98 10.44 10.94 120.2 122.8 2.556 2.5
2006 11 168 1000 1.252 2.741 -1.284 -1.231 90.4 95.2 9.55 10 114.5 117.8 2.596 2.575
2006 11 168 1100 1.747 3.788 -0.64 -0.578 88.7 93.2 10.64 11.17 123.8 126.5 2.612 2.58
2006 11 168 1200 2.248 4.926 -0.542 -0.492 89.5 94.7 10.87 11.39 126.7 129.8 2.622 2.609
2006 11 168 1300 2.555 5.618 -0.747 -0.707 90 95.5 11.58 12.14 123.9 128.4 2.633 2.626
2006 11 168 1400 2.77 6.066 -0.564 -0.548 92.7 99.6 11.51 12.03 129.4 132.6 2.632 2.635
2006 11 168 1500 3.03 6.812 -0.091 -0.098 96.3 103 10.77 11.22 140.2 143.8 2.631 2.64
2006 11 168 1600 2.653 6.069 0.002 -0.017 98.4 104.5 10.51 10.62 149.7 153.6 2.633 2.642
2006 11 168 1700 2.351 5.285 0.065 0.068 98.3 104.3 10.55 10.46 151.1 154 2.633 2.64
2006 11 168 1800 1.905 4.42 -0.34 -0.36 100.4 105.6 11.73 11.23 156.4 157.8 2.602 2.641
2006 11 168 1900 1.931 4.502 -0.374 -0.388 100.5 105.8 11.28 11.06 151.5 153.6 2.576 2.636
2006 11 168 2000 1.667 3.91 -0.295 -0.282 99.5 105.6 10.47 10.48 150.1 152.9 1.296 2.632
2006 11 168 2100 1.059 2.491 -0.277 -0.266 98.3 105 8.69 8.73 149.7 152 0 2.636
2006 11 168 2200 1.078 2.484 -0.277 -0.27 97.1 103.7 7.57 7.69 147.8 150.4 0 2.632
2006 11 168 2300 0.813 1.853 -0.558 -0.565 99.2 105 8.62 8.76 146.3 149 0 2.633
2006 11 169 0 0.518 1.174 -0.977 -0.992 100.9 106.2 8.09 7.67 157.2 158.7 0 2.634
2006 11 169 100 0.297 0.667 -1.128 -1.142 101.5 106.6 7.94 7.44 158.1 159.6 0 2.635
2006 11 169 200 0.176 0.394 -1.592 -1.602 101.5 106.4 7.77 7.37 164.3 164.5 0 2.638
2006 11 169 300 0.114 0.257 -1.942 -1.94 101.3 106.2 7.97 7.65 166.8 167.2 0 2.64
2006 11 169 400 0.079 0.181 -2.753 -2.776 100.5 105.3 10.75 10.25 163.1 164.8 0 2.64
2006 11 169 500 0.086 0.196 -3.415 -3.429 99.8 104.7 9.11 9.19 149.1 151.9 0 2.657
2006 11 169 600 0.159 0.355 -3.638 -3.651 99.5 104.4 9.11 8.89 154.5 157.3 0 2.635
2006 11 169 700 0.387 0.852 -3.996 -4.009 98.9 103.8 9.55 8.95 161.4 162.8 0 2.535
2006 11 169 800 0.722 1.581 -4.363 -4.381 98.1 103 9 8.48 157.5 158.5 0 2.559
2006 11 169 900 1.224 2.666 -4.371 -4.397 97.3 102.2 8.1 7.89 153.1 155.3 0 2.566
2006 11 169 1000 1.46 3.173 -4.259 -4.29 96.7 101.7 8.13 8.01 153.3 154.8 0 2.589
2006 11 169 1100 2 4.367 -4.054 -4.075 96 101 8.13 7.68 160.5 162.1 0 2.605
2006 11 169 1200 2.519 5.597 -4.059 -4.097 94.8 99.6 7.63 7.32 169.7 170.3 0 2.612
2006 11 169 1300 2.56 5.79 -4.262 -4.301 93.9 99.1 7.29 6.946 167.2 167.2 0 2.612
2006 11 169 1400 2.983 6.749 -4.259 -4.312 92.8 98.1 7.04 6.735 166.8 167.3 0 2.606
2006 11 169 1500 3.861 8.76 -3.764 -3.855 87.3 93.1 6.709 6.438 166.1 166.8 0 2.62
2006 11 169 1600 3.903 9.07 -3.323 -3.389 83.8 89.7 6.131 5.796 161.2 161.7 0 2.574
2006 11 169 1700 3.697 8.83 -3.003 -3.113 81.4 87 6.107 6.053 151.4 152.9 0 1.973
2006 11 169 1800 3.378 8.21 -2.81 -2.865 81.8 87.2 5.658 5.452 157.9 159.7 0 2.367
2006 11 169 1900 2.948 7.37 -2.925 -2.936 82.1 87.5 4.287 4.068 164.9 166.1 0 2.367
2006 11 169 2000 2.571 6.543 -3.079 -3.109 83.4 89.3 3.279 3.365 140.5 142.8 0 2.369
2006 11 169 2100 2.081 5.396 -3.89 -3.83 85.9 91.7 2.972 3.181 119.9 122.4 0 2.374
2006 11 169 2200 1.58 4.154 -4.927 -4.814 86.3 92 2.729 3.011 106.9 109.1 1.28 2.379
2006 11 169 2300 1.16 3.051 -6.045 -5.874 85.6 91 3.168 3.507 96 98.1 2.559 2.383
2006 11 170 0 0.807 2.035 -6.885 -6.651 87 92.2 3.434 3.805 98 99.9 2.563 2.952
2006 11 170 100 0.52 1.254 -8.4 -8.19 87.2 91.6 4.075 4.455 89.8 91 2.568 2.392
2006 11 170 200 0.336 0.689 -8.58 -8.39 84 88.1 5.037 5.424 96.8 98.5 2.568 2.56
2006 11 170 300 0.222 0.407 -9.34 -9.14 84.4 87.6 5.559 5.953 101.2 102.9 2.571 2.605
2006 11 170 400 0.243 0.436 -9.5 -9.36 86.5 90.2 5.511 5.848 103.9 105.8 2.571 2.647
2006 11 170 500 0.214 0.412 -8.39 -8.28 88 92.3 4.709 5.014 99.6 103.3 2.568 2.432
2006 11 170 600 0.496 0.816 -9.5 -9.39 86.5 90.9 4.98 5.285 103.4 105.4 2.572 2.605
2006 11 170 700 0.561 1.15 -8.06 -8.02 89.1 93.4 4.832 5.069 107.1 109.8 2.566 2.64
2006 11 170 800 0.769 1.644 -6.488 -6.476 89.4 94.1 4.856 5.056 111.4 114.1 2.559 2.635
2006 11 170 900 1.082 2.334 -5.507 -5.5 91 95.9 4.698 4.873 117.7 121.2 2.554 2.63
2006 11 170 1000 1.589 3.4 -4.836 -4.836 91.3 96.3 4.382 4.544 128 131.4 2.552 2.626
2006 11 170 1100 2.331 4.805 -4.425 -4.422 91.4 96.5 4.37 4.548 124.3 128.3 2.551 2.624
2006 11 170 1200 3.2 6.608 -4.181 -4.178 90.2 95.3 4.564 4.745 124.5 128 2.55 2.497
2006 11 170 1300 3.366 7.29 -3.573 -3.593 88.4 93.4 4.573 4.726 125.7 129.4 2.548 2.621
2006 11 170 1400 3.326 7.39 -3.202 -3.252 85.6 90.8 4.165 4.281 132.1 134.7 2.546 2.619
2006 11 170 1500 3.958 8.94 -2.847 -2.925 83 88.4 3.801 3.659 158.5 160.2 2.547 2.618
2006 11 170 1600 4.199 9.69 -2.889 -2.947 82.9 87.9 3.828 3.655 170 171.3 2.547 2.618
2006 11 170 1700 4.688 10.85 -2.595 -2.65 78.8 83.4 3.114 3.022 175.2 176.5 2.55 2.621
2006 11 170 1800 2.661 6.101 -3.062 -3.133 84.7 89.1 2.367 2.479 184.7 185.5 2.556 2.624
2006 11 170 1900 2.612 5.921 -3.106 -3.163 83.9 88.6 2.451 2.421 177.5 178.4 2.553 2.625
2006 11 170 2000 1.934 4.287 -3.242 -3.266 85.4 90.1 2.197 2.111 166.8 169.3 2.554 2.626
2006 11 170 2100 1.601 3.601 -3.194 -3.207 85.5 89.9 1.133 1.214 184.4 187.2 2.554 2.626
2006 11 170 2200 1.424 3.204 -2.859 -2.887 84.8 89.6 1.105 1.1 146.7 150.5 2.555 2.626
2006 11 170 2300 1.083 2.447 -3.201 -3.23 88.2 92.9 0.86 0.862 166.5 170.6 2.556 2.628
2006 11 171 0 0.994 2.315 -3.277 -3.277 86 91.2 0.784 0.785 153.4 156.3 2.558 2.629
2006 11 171 100 0.459 1.081 -5.952 -5.085 92.7 97.9 1.612 1.784 121 125.4 2.571 2.643
2006 11 171 200 0.185 0.4 -8.45 -8.16 96.1 100.6 1.083 1.263 116.1 116.9 2.581 2.652
2006 11 171 300 0.101 0.22 -7.95 -7.71 95.5 100.3 2.133 2.444 85.2 86.7 2.154 2.648
2006 11 171 400 0.217 0.368 -10.81 -10.19 94 98.6 1.986 2.37 90.6 94.1 2.592 2.664
2006 11 171 500 0.25 0.462 -10.67 -10.3 94.1 99.1 1.99 2.336 104 104.8 2.592 2.664
2006 11 171 600 0.409 0.687 -10.22 -10.03 95.6 99.6 3.158 3.49 72.1 73 0.572 2.664
2006 11 171 700 0.839 1.371 -10.37 -10.25 94 98.4 3.319 3.609 77.4 79.2 0.947 2.666
2006 11 171 800 1.358 2.341 -10.59 -10.5 92.9 97.5 3.877 4.149 76.8 76.6 2.611 2.667
2006 11 171 900 1.51 2.954 -9.58 -9.56 92.8 97.9 4.047 4.256 72.9 74 2.591 2.662
2006 11 171 1000 1.444 3.137 -6.605 -6.577 93.6 99.3 4.014 3.984 86.7 89.2 2.575 2.645
2006 11 171 1100 2.777 5.72 -5.711 -5.652 89.9 95.5 4.621 4.651 101.8 103.6 2.569 2.641
2006 11 171 1200 3.23 6.589 -6.028 -5.99 88.2 93.6 4.343 4.57 100.9 103.1 2.574 2.645
2006 11 171 1300 3.539 7.45 -4.404 -4.44 85.6 90.9 4.223 4.432 117.2 120.9 2.569 2.637
2006 11 171 1400 3.777 8.17 -3.482 -3.486 82.4 87.5 4.368 4.593 122.6 125.4 2.564 2.632
2006 11 171 1500 3.873 8.59 -3.072 -3.084 79.5 84.5 4.948 5.2 120.8 124.5 2.561 2.631
2006 11 171 1600 3.843 8.75 -2.818 -2.821 77.8 82.8 4.975 5.232 118.4 121.8 2.557 2.629
2006 11 171 1700 3.683 8.6 -2.551 -2.53 76.8 81.7 4.693 4.935 120.4 123.4 2.556 2.628
2006 11 171 1800 3.406 8.11 -2.332 -2.298 77.4 82.6 4.391 4.605 127 130.4 2.555 2.625
2006 11 171 1900 3.026 7.36 -2.519 -2.458 79.3 84.4 4.677 4.928 124.8 128.3 2.558 2.626
2006 11 171 2000 2.579 6.404 -2.647 -2.56 81.5 86.6 4.338 4.587 121.3 123.9 2.559 2.628
2006 11 171 2100 2.096 5.316 -3.156 -3.062 82.3 87.3 4.068 4.314 115.4 119 2.562 2.631
2006 11 171 2200 1.616 4.174 -3.941 -3.856 81.4 86.4 4.472 4.743 109.6 112.5 2.565 2.635
2006 11 171 2300 1.185 3.076 -4.855 -4.762 80.5 85.3 6.217 6.534 107.2 109.8 2.57 2.639
2006 11 172 0 0.834 2.085 -6.172 -6.064 80.4 85.2 6.055 6.397 102.1 104.3 2.578 2.646
2006 11 172 100 0.535 1.28 -6.347 -6.236 78.1 82.4 8.04 8.45 106.9 109.2 2.577 2.648
2006 11 172 200 0.318 0.626 -7.28 -7.16 79.5 83.3 9 9.43 105.2 106.9 2.581 2.654
2006 11 172 300 0.229 0.404 -8.04 -7.9 80.7 83.6 9.25 9.71 104.7 106.9 2.587 2.645
2006 11 172 400 0.237 0.377 -8.5 -8.39 80.1 83.5 9.59 10.08 101.9 104.6 2.592 2.661
2006 11 172 500 0.363 0.516 -8.82 -8.71 79 83.1 10.3 10.84 99.4 102.8 2.596 2.663
2006 11 172 600 0.627 0.876 -8.43 -8.3 77.9 81.7 10.57 11.1 104.4 106.9 2.594 2.661
2006 11 172 700 0.949 1.468 -8.18 -8.05 77.5 81.3 11.22 11.79 105.8 110.2 2.593 2.661
2006 11 172 800 1.373 2.305 -7.28 -7.15 76.4 80.3 11.1 11.66 103.8 105.2 2.591 2.657
2006 11 172 900 1.864 3.329 -6.309 -6.182 75.4 79.3 11.13 11.7 104.5 106.9 2.588 2.652
2006 11 172 1000 2.32 4.364 -5.393 -5.283 75.3 79.2 10.68 11.2 104.4 108.8 2.585 2.647
2006 11 172 1100 2.893 5.652 -4.709 -4.626 75.8 79.9 10.67 11.18 106 109.8 2.579 2.644
2006 11 172 1200 3.113 6.352 -3.851 -3.77 76.2 80.2 10.26 10.77 110 113.8 2.577 2.639
2006 11 172 1300 3.55 7.47 -2.62 -2.543 76.3 80.2 10.2 10.75 114.7 117.7 2.575 2.633
2006 11 172 1400 3.283 7.13 -1.713 -1.631 78.1 82.2 10.48 11.03 120.6 124.5 2.57 2.628
2006 11 172 1500 3.174 6.966 -0.99 -0.902 78.9 83.1 9.9 10.4 128.3 131.5 2.567 2.625
2006 11 172 1600 2.677 5.946 -0.779 -0.692 80.5 85 10.12 10.62 131.3 134.2 2.569 2.62
2006 11 172 1700 2.748 6.13 -0.611 -0.514 80.3 84.7 9.49 9.97 125.4 129.1 2.57 2.622
2006 11 172 1800 2.673 5.9 -0.234 -0.159 82.6 87.3 9.5 9.95 130.9 134.2 2.573 2.62
2006 11 172 1900 2.339 5.16 -0.247 -0.2 85.4 90.3 8.91 9.33 140.9 143.6 2.573 2.619
2006 11 172 2000 2.197 4.842 -0.339 -0.326 87.4 92.4 7.31 7.57 144.3 147.4 2.573 2.619
2006 11 172 2100 1.673 3.672 -0.503 -0.487 89.1 94 6.834 7.12 140.5 145.3 2.574 2.62
2006 11 172 2200 1.207 2.627 -0.26 -0.228 92.6 97.4 8.25 8.63 131.6 136.6 2.572 2.618
2006 11 172 2300 1.083 2.343 -0.585 -0.544 91.5 96.2 7.51 7.85 127 129.7 2.575 2.62
2006 11 173 0 0.578 1.237 -0.658 -0.605 92 96.7 6.005 6.299 122.6 125.3 2.572 2.62
2006 11 173 100 0.268 0.579 -1.987 -1.874 92.9 97.7 5.033 5.319 137.6 140.9 2.577 2.625
2006 11 173 200 0.231 0.491 -2.166 -2.096 96 100.9 4.177 4.392 142.6 146.2 2.578 2.627
2006 11 173 300 0.132 0.285 -2.105 -2.071 99 103.9 3.869 3.889 153.4 156.5 1.417 2.626
2006 11 173 400 0.09 0.198 -2.208 -2.2 99.7 104.8 4.637 4.78 146.9 149.4 0.936 2.626
2006 11 173 500 0.152 0.328 -2.591 -2.589 99.5 104.6 4.608 4.768 141.9 145.3 2.602 2.627
2006 11 173 600 0.202 0.439 -2.491 -2.472 99.3 104.3 4.068 4.261 120.6 124 2.59 2.625
2006 11 173 700 0.317 0.677 -2.127 -2.093 98.2 103.1 4.999 5.231 117.4 120.3 2.587 2.623
2006 11 173 800 0.793 1.607 -1.578 -1.533 96.4 101.5 5.49 5.748 123.1 126.2 2.58 2.62
2006 11 173 900 0.814 1.733 -0.825 -0.804 97.4 102.4 5.769 6.005 133.6 137.5 2.571 2.618
2006 11 173 1000 1.251 2.726 -0.458 -0.473 99.9 105.4 5.537 5.714 143.3 147.7 2.568 2.614
2006 11 173 1100 1.844 4.039 -0.198 -0.23 98.9 104.8 5.795 5.905 147.5 151.1 2.564 2.615
2006 11 173 1200 2.68 5.898 -0.146 -0.167 96.9 102.9 5.504 5.277 155.5 158.6 2.563 2.617
2006 11 173 1300 2.593 5.778 -0.411 -0.422 97 102.6 5.986 5.668 158.7 161.2 2.564 2.623
2006 11 173 1400 2.867 6.41 -0.436 -0.451 97.5 103.1 6.763 6.471 166.9 168.3 2.559 2.622
2006 11 173 1500 3.325 7.42 -0.315 -0.348 97 103.2 5.732 5.578 175.1 174.5 2.546 2.625
2006 11 173 1600 2.977 6.581 -0.191 -0.23 96.1 102.2 4.01 3.904 173.1 173.2 2.548 2.629
2006 11 173 1700 3.141 6.931 0.017 -0.019 94.2 100.2 3.238 3.146 168.5 170.1 2.551 2.627
2006 11 173 1800 2.966 6.527 0.013 -0.018 96.3 102.3 5.372 5.512 146.7 149.3 2.553 2.628
2006 11 173 1900 2.545 5.596 -0.021 -0.036 96.2 101.9 5.91 5.91 151.8 154.1 2.554 2.633
2006 11 173 2000 2.344 5.237 0.041 0.05 94.6 100.3 4.794 5.022 124.4 129 2.555 2.629
2006 11 173 2100 2.041 4.846 0.108 0.154 91.7 97.3 4.587 4.84 115.1 118.4 2.557 2.632
2006 11 173 2200 1.302 2.818 0.123 0.167 92.7 97.7 4.834 5.097 116.5 120.3 2.556 2.632
2006 11 173 2300 0.829 1.733 0.194 0.233 92.8 97.6 5.486 5.763 113.2 115.7 2.557 2.632
2006 11 174 0 0.525 1.095 0.381 0.431 88.9 93.3 6.609 6.922 114.5 118.1 2.559 2.631
2006 11 174 100 0.264 0.557 0.671 0.718 90.9 95.5 7.62 7.98 125 129.2 2.559 2.631
2006 11 174 200 0.155 0.327 1.094 1.148 94.1 98.8 6.869 7.19 126 129.7 2.558 2.63
2006 11 174 300 0.105 0.226 0.927 0.969 97.7 102.7 6.823 7.14 124.6 128.6 2.559 2.628
2006 11 174 400 0.081 0.176 0.29 0.296 101.9 107 7.88 8.24 139.4 142.4 2.573 2.631
2006 11 174 500 0.115 0.247 0.191 0.187 102.7 107.7 6.532 6.631 149.7 152.4 1.359 2.63
2006 11 174 600 0.121 0.269 0.331 0.335 103.1 108.2 6.708 6.564 158.3 160 1.721 2.63
2006 11 174 700 0.207 0.469 0.223 0.197 103.2 108.1 7.22 7.07 170.5 171 2.577 2.622
2006 11 174 800 0.335 0.794 0.395 0.342 103.2 108.2 6.569 6.604 151.2 154.7 2.565 2.617
2006 11 174 900 0.481 1.046 0.767 0.741 103 108.1 7.02 6.835 171.2 170.6 2.559 2.608
2006 11 174 1000 0.754 1.635 0.669 0.738 102.5 107.6 5.659 5.561 162.1 164 2.556 2.608
2006 11 174 1100 0.959 2.067 0.913 1.01 102.2 107.4 5.838 6.077 144.4 146.9 2.547 2.61
2006 11 174 1200 1.105 2.421 1.24 1.289 101.9 107.2 6.705 6.542 160.5 163.1 2.126 2.606
2006 11 174 1300 1.649 3.538 1.327 1.38 100.7 106 5.044 5.037 173.3 173.7 2.554 2.611
2006 11 174 1400 1.864 4.047 1.629 1.708 99.3 104.7 3.566 3.634 151 153 2.553 2.615
2006 11 174 1500 2.194 4.723 1.725 1.813 99.4 104.9 4.807 5.09 133.5 136.9 2.56 2.619
2006 11 174 1600 2.133 4.55 1.761 1.847 99.1 105.4 4.058 4.284 144.7 148.4 2.565 2.626
2006 11 174 1700 2.01 4.297 1.77 1.893 98.7 104.4 3.153 3.431 127.2 131.1 2.569 2.624
2006 11 174 1800 1.709 3.716 1.577 1.68 98.2 103.4 3.396 3.672 101.3 104.2 2.572 2.63
2006 11 174 1900 2.448 5.076 2.056 2.235 93.7 98.9 3.333 3.625 90.2 91.8 2.571 2.631
2006 11 174 2000 1.782 3.611 2.144 2.309 91.8 96.7 2.929 3.179 99.6 101.7 2.576 2.629
2006 11 174 2100 1.576 3.223 2.043 2.205 92.4 97 2.891 3.15 67.92 69.34 2.579 2.632
2006 11 174 2200 0.907 1.864 1.715 1.796 94.6 99.4 4.014 4.325 64.91 66.31 2.581 2.636
2006 11 174 2300 0.507 1.021 1.813 1.918 94.1 98.7 4.074 4.4 64.89 66.45 2.582 2.637
2006 11 175 0 0.265 0.535 1.728 1.826 93.6 98 4.341 4.66 71.1 73 2.582 2.639
2006 11 175 100 0.143 0.298 1.75 1.885 90.4 94.5 4.642 4.978 90.3 92.1 2.584 2.639
2006 11 175 200 0.145 0.289 1.74 1.886 89.6 93.6 4.92 5.258 104.5 107.2 2.584 2.639
2006 11 175 300 0.102 0.205 2.081 2.219 89.3 93.3 5.119 5.457 101.9 104.7 2.582 2.639
2006 11 175 400 0.086 0.167 2.148 2.286 88.6 92.5 5.171 5.509 101.5 103.3 2.587 2.639
2006 11 175 500 0.112 0.217 2.092 2.22 86.9 90.9 5.983 6.333 102.5 104.8 2.588 2.64
2006 11 175 600 0.209 0.411 2.075 2.194 85.7 89.7 7.1 7.49 101.6 103.9 2.588 2.642
2006 11 175 700 0.344 0.688 2.235 2.349 85.4 89.5 6.855 7.22 101.6 103.2 2.589 2.643
2006 11 175 800 0.594 1.158 2.287 2.402 85.5 89.6 7.32 7.69 105.9 108.5 2.59 2.643
2006 11 175 900 1.105 2.087 2.563 2.683 82.8 87 7.51 7.89 99.1 101.2 2.589 2.644
2006 11 175 1000 2.087 3.595 2.728 2.855 79.8 83.9 8.05 8.46 97.3 100.1 2.586 2.646
2006 11 175 1100 2.524 4.44 2.685 2.794 79.5 83.6 8.52 8.95 105.4 107.2 2.59 2.648
2006 11 175 1200 2.94 5.373 2.87 2.994 78.4 82.5 9.1 9.55 110.1 113.2 2.594 2.651
2006 11 175 1300 3.139 5.988 2.664 2.782 80.2 84.5 8.64 9.08 113.7 116.9 2.598 2.654
2006 11 175 1400 3.784 7.26 2.833 2.954 79.9 84.4 8.68 9.16 119.2 122.5 2.604 2.657
2006 11 175 1500 3.598 7.1 2.784 2.896 82.6 87.3 7.9 8.33 116.9 120.3 2.61 2.664
2006 11 175 1600 3.831 7.68 2.868 2.999 84.6 89.4 7.47 7.88 118.8 122.3 2.616 2.67
2006 11 175 1700 2.89 5.814 3.064 3.219 85.4 90.1 7.21 7.59 124.5 127.4 2.619 2.676
2006 11 175 1800 2.948 6.042 2.568 2.681 89.9 95 7.33 7.68 130.9 134.4 2.625 2.678
2006 11 175 1900 1.667 3.41 1.419 1.456 97.7 102.8 5.815 5.709 153.9 155.6 2.633 2.685
2006 11 175 2000 0.847 1.837 0.53 0.545 101.7 106.6 3.899 5.249 191.9 195.6 2.642 2.689
2006 11 175 2100 1.046 2.279 -0.676 -0.712 101.6 106.6 2.899 5.136 200.2 207.9 2.646 2.695
2006 11 175 2200 0.935 2.088 -1.357 -1.417 101.3 106.1 3.736 4.905 193.8 197.7 2.634 2.681
2006 11 175 2300 0.661 1.468 -1.639 -1.682 101.2 106.1 3.103 4.436 196.6 200.8 2.624 2.676
2006 11 176 0 0.444 0.993 -1.838 -1.866 101.3 106.2 3.216 4.85 192.9 198.2 2.618 2.672
2006 11 176 100 0.321 0.713 -1.887 -1.894 101.4 106.3 3.306 4.877 196.8 201.5 2.587 2.648
2006 11 176 200 0.175 0.389 -2.165 -2.177 101.2 106.2 3.007 4.625 210.6 219.7 2.598 2.654
2006 11 176 300 0.075 0.172 -2.013 -2.025 101.5 106.4 1.676 2.371 207.2 213.8 2.589 2.655
2006 11 176 400 0.096 0.238 -1.943 -1.95 101.6 106.5 0.98 1.256 204.8 210.8 2.577 2.649
2006 11 176 500 0.117 0.34 -2.068 -2.107 101.5 106.3 1.372 1.468 124.3 128.1 2.565 2.638
2006 11 176 600 0.171 0.548 -1.864 -1.879 101.7 106.5 0.41 0.407 130.4 135.4 2.562 2.63
2006 11 176 700 0.21 0.824 -1.312 -1.442 102 107 0.647 0.525 221 198 2.558 2.625
2006 11 176 800 0.333 1.308 -1.723 -1.798 101.6 106.6 1.742 1.895 98.6 82.1 2.552 2.618
2006 11 176 900 0.661 2.41 -1.745 -1.75 101.1 106.4 2.132 2.306 34.82 35.48 2.551 2.618
2006 11 176 1000 1.369 3.53 -1.181 -1.168 101.1 106.6 2.153 2.278 39.49 40.8 2.551 2.616
2006 11 176 1100 2.037 4.488 -0.763 -0.823 100.8 106.6 2.771 2.895 45.7 47.13 2.551 2.616
2006 11 176 1200 2.834 6.179 -1.051 -1.148 99 105.6 4.165 4.365 26.13 27.1 2.557 2.623
2006 11 176 1300 2.941 6.501 -0.689 -0.807 98.3 105.4 3.744 3.903 38.84 40.2 2.561 2.627
2006 11 176 1400 3.67 8.1 -0.337 -0.462 95.1 103.4 3.271 3.402 61.06 62.35 2.567 2.632
2006 11 176 1500 3.502 7.79 -0.081 -0.12 91.7 101.6 2.447 2.544 74.7 75.8 2.575 2.638
2006 11 176 1600 3.73 8.29 0.124 0.151 87.4 95.8 1.725 1.767 102.2 104.8 2.581 2.646
2006 11 176 1700 4.036 8.94 1.221 0.775 79.1 88.2 1.02 0.975 154.1 158.3 2.589 2.656
2006 11 176 1800 3.862 8.59 2.628 3.687 71.8 75.5 0.508 0.49 134.4 139.7 2.599 2.658
2006 11 176 1900 2.935 6.75 2.158 2.196 74.3 79.5 0.733 0.676 161.2 165 2.609 2.669
2006 11 176 2000 2.547 6.013 2.698 2.957 70.7 76.3 0.435 0.409 116.3 117.2 2.612 2.674
2006 11 176 2100 1.965 4.766 0.379 0.401 84.7 90.3 1.29 1.405 66.46 67.13 2.614 2.677
2006 11 176 2200 1.566 3.928 -0.391 -0.372 88.5 94.1 2.183 2.34 64.25 65.67 2.618 2.681
2006 11 176 2300 1.136 2.89 -1.071 -0.99 89.8 95.1 2.605 2.825 78.5 79.9 2.621 2.684
2006 11 177 0 0.791 1.951 -1.917 -1.823 90.5 95.5 3.133 3.398 74.1 76.2 2.624 2.687
2006 11 177 100 0.508 1.218 -2.996 -2.909 90.7 95.4 3.921 4.212 70.9 72.2 2.627 2.692
2006 11 177 200 0.345 0.705 -3.663 -3.571 89.2 93.6 4.841 5.145 76.4 78.8 2.63 2.696
2006 11 177 300 0.241 0.447 -3.923 -3.798 88.5 92 5.137 5.466 81 83.2 2.632 2.698
2006 11 177 400 0.151 0.263 -3.956 -3.82 85 89 5.935 6.29 85.4 87.4 2.632 2.699
2006 11 177 500 0.289 0.41 -3.829 -3.716 82.9 87.3 7.42 7.79 95.7 97.2 2.629 2.698
2006 11 177 600 0.563 0.761 -4.563 -4.459 83.3 87.5 7.75 8.13 94.1 97.4 2.633 2.701
2006 11 177 700 0.903 1.351 -4.825 -4.73 81.2 85.4 8.34 8.74 98.7 101.1 2.634 2.705
2006 11 177 800 1.336 2.163 -4.747 -4.655 80.3 84.5 8.82 9.23 97.3 100.4 2.635 2.705
2006 11 177 900 1.829 3.133 -4.382 -4.296 79.4 83.5 9.1 9.52 97.9 99.6 2.632 2.703
2006 11 177 1000 2.337 4.187 -3.71 -3.658 76.8 81.1 9.01 9.36 95.1 96.9 2.628 2.701
2006 11 177 1100 2.815 5.248 -2.874 -2.836 76 80.3 8.68 9.02 94.1 96 2.626 2.697
2006 11 177 1200 3.231 6.238 -2.03 -2.016 76 80.2 8.18 8.45 101.8 104.5 2.622 2.692
2006 11 177 1300 3.553 7.09 -1.039 -1.046 76.1 80.4 8.13 8.39 105.3 108.8 2.619 2.687
2006 11 177 1400 3.772 7.75 -0.058 -0.066 75.8 80.1 7.59 7.84 107.1 109.6 2.614 2.683
2006 11 177 1500 3.866 8.13 0.724 0.728 74.2 78.7 7.47 7.71 103.9 107.2 2.611 2.679
2006 11 177 1600 3.826 8.21 1.283 1.314 74 78.4 6.006 6.226 102.4 104.4 2.61 2.676
2006 11 177 1700 3.659 7.93 1.619 1.688 76 80.6 4.709 4.918 89.5 92 2.61 2.674
2006 11 177 1800 3.382 7.4 1.839 1.928 77.3 82 4.181 4.395 90.3 93 2.612 2.676
2006 11 177 1900 2.993 6.684 1.756 1.844 81.7 86.6 3.588 3.812 71.3 72.1 2.615 2.678
2006 11 177 2000 2.54 5.812 1.913 2.035 81.9 86.6 4.155 4.429 75.8 77.5 2.617 2.681
2006 11 177 2100 2.054 4.836 1.843 2.008 81.7 86.2 3.317 3.597 72 73.2 2.618 2.682
2006 11 177 2200 1.573 3.806 1.761 2.035 81.5 84.9 1.926 2.21 83.5 85.9 2.621 2.685
2006 11 177 2300 1.142 2.803 3.012 3.126 75.4 80.4 0.915 0.978 129.5 128.2 2.624 2.687
2006 11 178 0 0.79 1.877 0.737 0.947 85.7 89.7 1.469 1.667 50.15 45.93 2.628 2.692
2006 11 178 100 0.46 1.057 -0.305 0.116 88.4 91.8 2.272 2.629 55.09 55.41 2.631 2.695
2006 11 178 200 0.309 0.583 -1.331 -0.849 89.4 92.8 2.445 2.756 71.2 72.4 2.636 2.7
2006 11 178 300 0.216 0.368 -2.015 -1.046 89.1 89.8 2.209 2.593 88.9 92.5 2.64 2.706
2006 11 178 400 0.208 0.321 -2.709 -2.173 88.5 91.1 3.185 3.6 89.1 91.6 2.643 2.709
2006 11 178 500 0.327 0.445 -3.001 -2.866 86.4 91.2 5.56 5.884 96.9 98.7 2.644 2.712
2006 11 178 600 0.57 0.755 -3.518 -3.418 84.7 89.2 7.2 7.5 105.7 107.9 2.645 2.715
2006 11 178 700 0.854 1.238 -3.989 -3.914 84.4 89 7.18 7.46 107.8 110.7 2.647 2.718
2006 11 178 800 1.305 2.034 -4.024 -3.972 82.6 87.2 7.67 7.94 106.4 109.3 2.647 2.72
2006 11 178 900 1.923 3.187 -3.609 -3.575 82.4 86.9 7.38 7.64 109.8 112.9 2.647 2.718
2006 11 178 1000 2.342 4.036 -3.198 -3.179 81.6 86.2 7.44 7.69 112.1 115.1 2.645 2.717
2006 11 178 1100 2.754 4.938 -2.623 -2.618 81.6 86.2 6.986 7.22 115.4 118.3 2.643 2.713
2006 11 178 1200 3.173 5.907 -2.139 -2.155 82.1 86.7 6.97 7.2 115.3 119 2.641 2.711
2006 11 178 1300 3.507 6.758 -1.221 -1.249 83 87.7 5.803 6 119.1 121.9 2.638 2.706
2006 11 178 1400 3.725 7.38 -0.352 -0.362 83.1 88.2 4.458 4.585 127.3 130.7 2.635 2.701
2006 11 178 1500 3.823 7.76 0.018 -0.001 83.6 89 4.03 4.144 131.1 134.6 2.634 2.7
2006 11 178 1600 3.788 7.85 0.377 0.33 82.2 88.2 3.121 3.209 139.8 142.9 2.633 2.699
2006 11 178 1700 3.629 7.68 0.67 0.691 80.6 85.2 1.608 1.642 179.2 181.8 2.634 2.7
2006 11 178 1800 3.356 7.21 1.813 1.805 76.6 81.6 0.858 0.859 173.7 179.4 2.636 2.703
2006 11 178 1900 3.101 6.721 2.451 2.443 72.1 76.8 0.536 0.499 155.6 160.4 2.638 2.705
2006 11 178 2000 2.65 5.426 1.536 1.87 78.3 82.3 0.619 0.723 227.5 233.7 2.639 2.707
2006 11 178 2100 2.2 4.404 1.008 1.096 82.5 86.7 1.332 1.352 284.1 286.8 2.641 2.708
2006 11 178 2200 1.323 2.629 0.501 0.435 90.1 94.7 1.926 1.983 302.9 306.3 2.641 2.709
2006 11 178 2300 0.945 1.871 0.429 0.389 92.9 97.6 2.532 2.641 305.5 308.2 2.641 2.708
2006 11 179 0 0.773 1.509 0.055 0.043 96.9 101.6 3.207 3.328 283.6 286.4 2.643 2.71
2006 11 179 100 0.449 0.88 -0.058 -0.073 101.3 106 3.168 3.293 295.1 297.3 2.643 2.711
2006 11 179 200 0.272 0.53 -0.122 -0.136 102.4 107.1 3.36 3.502 297.5 300.1 2.644 2.712
2006 11 179 300 0.124 0.245 -0.232 -0.244 102.6 107.3 2.975 3.096 303.9 306.9 2.646 2.713
2006 11 179 400 0.105 0.21 -0.061 -0.072 100.4 105 2.912 3.207 317.9 315.9 2.645 2.713
2006 11 179 500 0.102 0.21 -0.074 -0.089 96.5 101.2 3.707 3.938 230.4 226 2.644 2.714
2006 11 179 600 0.16 0.328 -0.501 -0.515 93.5 98.1 3.993 4.178 164.3 147.7 2.646 2.717
2006 11 179 700 0.311 0.624 -3.401 -3.444 84.7 88.8 6.613 6.824 71 72.7 2.659 2.732
2006 11 179 800 0.626 1.219 -4.985 -5.048 88.4 92.8 7.13 7.36 73.2 74.9 2.666 2.742
2006 11 179 900 1.25 2.154 -4.191 -4.213 90.5 95.1 6.175 6.414 75.9 77.4 2.664 2.74
2006 11 179 1000 1.967 3.607 -3.463 -3.492 86.9 91.4 6.316 6.533 75.5 77.2 2.662 2.737
2006 11 179 1100 2.743 5.006 -2.303 -2.333 83.9 88.6 5.334 5.508 65.34 66.43 2.657 2.732
2006 11 179 1200 3.402 6.316 -0.856 -0.859 80.6 85.2 2.699 2.765 78.7 81 2.653 2.726
2006 11 179 1300 3.152 6.098 -0.776 -0.835 82.3 87.2 3.528 3.399 156.1 158.6 2.655 2.725
2006 11 179 1400 3.107 6.186 -0.822 -0.882 89.7 94.8 5.002 4.765 157.8 160.6 2.655 2.724
2006 11 179 1500 3.223 6.486 -0.48 -0.477 86.4 91.2 3.959 3.718 162.5 164.5 2.653 2.723
2006 11 179 1600 3.381 6.784 0.321 0.324 79.8 84.4 2.165 2.047 161.3 162.5 2.652 2.722
2006 11 179 1700 3.193 6.415 0.988 1.169 71 75.7 1.304 1.318 98.6 101.2 2.651 2.723
2006 11 179 1800 3.305 6.988 3.088 3.527 61.24 65.84 0.674 0.677 111.3 114.4 2.654 2.664
2006 11 179 1900 2.996 6.492 3.183 3.631 56.71 58.96 0.565 0.507 257.3 290.6 2.656 2.726
2006 11 179 2000 2.535 5.695 1.389 1.452 73 77.2 1.056 1.096 293.1 296.4 2.658 2.729
2006 11 179 2100 2.054 4.798 3.327 4.099 70.4 73.2 0.338 0.322 121.5 127 2.66 2.732
2006 11 179 2200 1.572 3.782 0.95 1.585 74.5 77.6 0.569 0.603 65.78 56.62 2.662 2.734
2006 11 179 2300 1.138 2.782 -0.364 -0.184 82.9 86.6 1.354 1.511 86.4 88.2 2.664 2.737
2006 11 180 0 0.747 1.767 -1.222 -0.908 86.3 89.8 1.42 1.578 92.6 99.7 2.668 2.741
2006 11 180 100 0.417 0.958 -2.286 -1.943 90.5 94.4 1.705 1.996 85.2 89.5 2.672 2.746
2006 11 180 200 0.256 0.497 -3.098 -2.951 92 96.5 2.484 2.722 100.6 104 2.675 2.75
2006 11 180 300 0.178 0.291 -4.237 -4.034 94.4 97.9 3.177 3.481 101.6 105 2.68 2.757
2006 11 180 400 0.158 0.248 -4.91 -4.736 94.3 98.5 3.385 3.696 100.7 103.8 2.683 2.76
2006 11 180 500 0.172 0.278 -5.35 -5.215 92.4 97.3 3.791 4.098 102 105.2 2.686 2.764
2006 11 180 600 0.324 0.51 -5.196 -5.1 90.2 94.8 4.342 4.612 106 108.5 2.685 2.763
2006 11 180 700 0.334 0.632 -4.392 -4.365 88.8 93.3 5.311 5.523 111.1 114.6 2.681 2.76
2006 11 180 800 0.43 0.827 -4.109 -4.096 86.9 91.4 6.27 6.481 114.5 117.2 2.679 2.76
2006 11 180 900 1.103 1.96 -4.028 -4.015 84.6 89.1 6.853 7.08 113.2 116.8 2.68 2.761
2006 11 180 1000 2.176 3.68 -3.652 -3.621 82.3 86.9 6.818 7.08 117.4 121.1 2.679 2.761
2006 11 180 1100 2.793 4.941 -2.852 -2.834 82 86.6 6.552 6.802 121.1 125.1 2.676 2.757
2006 11 180 1200 3.14 5.771 -2.107 -2.104 82.1 86.8 6.72 6.959 126.7 130.5 2.673 2.753
2006 11 180 1300 3.413 6.498 -1.425 -1.467 81.5 86.5 6.692 6.911 136.6 141.1 2.671 2.75
2006 11 180 1400 3.472 6.794 -1.005 -1.051 81 86.2 6.975 7.21 141.5 145.5 2.67 2.748
2006 11 180 1500 3.843 7.7 -0.608 -0.664 81.3 86.6 6.719 6.895 145.5 149 2.669 2.747
2006 11 180 1600 3.831 7.87 -0.387 -0.458 81.2 86.7 5.841 5.907 148.8 152.5 2.669 2.745
2006 11 180 1700 3.665 7.75 -0.259 -0.328 82.4 87.8 5.666 5.701 149.9 153.5 2.669 2.745
2006 11 180 1800 3.348 7.25 -0.182 -0.223 82.7 88.2 4.376 4.287 153.6 156.7 2.669 2.745
2006 11 180 1900 2.775 6.182 -0.129 -0.134 84.3 90.2 3.869 4 140.7 144.3 2.669 2.745
2006 11 180 2000 2.357 5.262 -0.246 -0.249 86.1 91.8 4.124 4.257 142.5 146.5 2.67 2.747
2006 11 180 2100 2.049 4.637 -0.432 -0.447 87.8 93.2 3.975 3.858 153.9 156.9 2.672 2.748
2006 11 180 2200 1.307 2.723 -0.751 -0.77 90.3 95.4 3.801 3.813 151.2 154.9 2.673 2.752
2006 11 180 2300 0.918 1.861 -0.734 -0.73 91.4 96.4 3.411 3.565 139.8 143.3 2.673 2.752
2006 11 181 0 0.78 1.535 -0.62 -0.616 92.5 97.4 3.687 3.843 136.9 139.9 2.672 2.752
2006 11 181 100 0.343 0.673 -0.664 -0.669 95.4 100.1 4.034 4.184 138.4 142.3 2.672 2.752
2006 11 181 200 0.149 0.299 -0.682 -0.687 96.3 101 3.679 3.808 140.6 143.9 2.672 2.752
2006 11 181 300 0.137 0.27 -0.664 -0.664 95.9 100.6 3.981 4.157 133.7 137.8 2.672 2.753
2006 11 181 400 0.119 0.232 -0.669 -0.656 96.8 101.5 3.73 3.914 132.3 135.1 2.673 2.753
2006 11 181 500 0.135 0.267 -0.699 -0.689 97.3 102.1 4.049 4.237 123.6 127.4 2.673 2.754
2006 11 181 600 0.167 0.346 -0.67 -0.676 99.7 104.7 4.356 4.521 141.8 145.9 2.676 2.754
2006 11 181 700 0.404 0.86 -0.532 -0.546 101.6 106.7 4.044 4.204 143 147.2 2.675 2.755
2006 11 181 800 0.53 1.171 -0.524 -0.555 101.5 106.5 5.403 5.639 140.4 143.9 2.671 2.756
2006 11 181 900 0.747 1.671 -0.915 -0.933 101.5 106.4 5.819 5.726 158.6 160.1 2.656 2.737
2006 11 181 1000 1.181 2.635 -1.381 -1.398 101.1 105.7 3.476 4.264 192 193.5 2.654 2.722
2006 11 181 1100 1.747 3.91 -1.937 -1.973 99.8 104.7 2.752 3.464 194.8 197.2 2.653 2.716
2006 11 181 1200 1.761 3.982 -2.408 -2.414 99.1 104.3 2.677 4.512 200.3 207 2.659 2.716
2006 11 181 1300 2.22 5.029 -2.846 -2.829 97.9 103.6 2.16 3.265 199.2 203.3 2.657 2.714
2006 11 181 1400 2.618 5.914 -2.798 -2.782 97 103.2 2.755 3.083 189.1 191.7 2.65 2.708
2006 11 181 1500 2.948 6.645 -2.424 -2.43 96.1 102.9 2.984 3.237 188.5 187.8 2.647 2.702
2006 11 181 1600 2.999 6.755 -2.165 -2.171 96 102.9 3.726 3.807 187 186.9 2.643 2.701
2006 11 181 1700 3.235 7.3 -2.115 -2.07 95.1 102.6 4.494 4.227 165.2 166.1 2.643 2.697
2006 11 181 1800 3.028 6.82 -1.99 -1.951 95 102.6 4.709 4.446 169.7 167.4 2.641 2.689
2006 11 181 1900 2.589 5.818 -2.087 -2.053 95.7 102.9 4.965 4.718 171.1 172 2.643 2.692
2006 11 181 2000 2.33 5.236 -2.136 -2.101 96.4 103.3 4.522 4.309 179.2 178.3 2.648 2.689
2006 11 181 2100 1.713 3.821 -2.162 -2.147 97.9 104.3 3.76 3.791 184.3 183.4 2.646 2.692
2006 11 181 2200 1.247 2.769 -2.247 -2.225 98.8 104.8 2.308 4.05 204 213 2.644 2.695
2006 11 181 2300 0.857 1.896 -2.427 -2.426 99.7 105.1 4.061 5.252 216.2 225.6 2.646 2.696
2006 11 182 0 0.495 1.089 -2.568 -2.573 100.2 105.4 4.686 5.008 223.2 231.4 2.645 2.695
2006 11 182 100 0.257 0.568 -2.748 -2.756 100.4 105.4 3.421 4.004 218.2 227.2 2.646 2.694
2006 11 182 200 0.168 0.37 -2.764 -2.769 100.7 105.6 2.97 3.924 215.5 224.4 2.647 2.696
2006 11 182 300 0.104 0.232 -2.812 -2.807 100.7 105.6 1.735 2.54 206.9 215.1 2.648 2.695
2006 11 182 400 0.097 0.217 -3.227 -3.207 100.3 105.3 2.577 2.546 169.5 170.5 2.65 2.698
2006 11 182 500 0.102 0.232 -2.892 -2.895 100.7 105.5 3.283 3.246 153.4 155.8 2.641 2.692
2006 11 182 600 0.209 0.464 -2.879 -2.853 100.7 105.6 2.607 2.637 174.9 175 1.759 2.666
2006 11 182 700 0.334 0.741 -2.615 -2.611 100.9 105.7 1.203 1.71 192.4 196.7 2.601 2.65
2006 11 182 800 0.434 0.96 -2.755 -2.718 100.5 105.3 2.056 2.839 215.1 224.3 2.587 2.639
2006 11 182 900 0.911 1.905 -3.432 -3.3 99.5 104.3 2.846 3.255 222.8 230.2 2.583 2.641
2006 11 182 1000 1.978 4.148 -3.14 -3.07 99.2 103.8 1.737 2.279 197.6 202.7 2.586 2.639
2006 11 182 1100 1.947 4.377 -3.125 -3.023 99.4 104.5 3.124 3.123 180.9 180.9 2.586 2.639
2006 11 182 1200 2.306 5.212 -3.113 -2.821 99 104.3 3.827 3.658 169.5 171.2 2.588 2.65
2006 11 182 1300 2.648 5.998 -2.449 -2.241 99 104.5 3.396 3.382 180.3 180.3 2.591 2.65
2006 11 182 1400 2.958 6.723 -2.566 -2.203 97.7 103.8 3.901 3.782 170.1 171.1 2.598 2.653
2006 11 182 1500 3.143 7.15 -2.708 -2.339 96.7 103.2 4.792 4.565 164.6 166.3 2.6 2.654
2006 11 182 1600 2.995 6.855 -2.925 -2.681 96.4 102.4 4.533 4.507 155.5 157.8 2.602 2.654
2006 11 182 1700 3.049 6.969 -2.818 -2.825 96.1 101.7 5.068 5.327 134.2 137.6 2.599 2.656
2006 11 182 1800 2.573 5.872 -2.424 -2.472 96.6 102 4.826 5.048 133.6 137.5 2.597 2.651
2006 11 182 1900 2.318 5.291 -2.153 -2.253 96.6 102.4 5.193 5.327 143.1 146.6 2.597 2.655
2006 11 182 2000 2.069 4.709 -2.444 -2.484 97 103.1 5.773 5.801 150 153 2.6 2.652
2006 11 182 2100 1.884 4.285 -2.534 -2.589 97.7 103.3 6.069 6.282 142.1 145.4 2.596 2.649
2006 11 182 2200 0.982 2.225 -2.167 -2.158 99.7 105.1 6.37 6.233 154.4 156.6 2.592 2.643
2006 11 182 2300 0.97 2.18 -2.174 -2.17 99.9 105.4 6.685 6.423 155.8 158.4 2.595 2.643
2006 11 183 0 0.673 1.495 -2.204 -2.178 100.4 105.6 5.208 5.084 161.3 162.7 2.599 2.641
2006 11 183 100 0.367 0.806 -2.108 -2.102 101 105.9 2.936 4.243 196.3 200.2 2.598 2.63
2006 11 183 200 0.153 0.34 -2.312 -2.321 101.2 106 3.198 3.921 220.8 228.8 2.602 2.633
2006 11 183 300 0.094 0.211 -2.715 -2.704 100.8 105.7 3.675 3.789 250.4 253.5 2.602 2.635
2006 11 183 400 0.073 0.166 -3.041 -3.001 100.6 105.5 3.053 3.173 261.5 264.6 2.611 2.636
2006 11 183 500 0.069 0.158 -3.695 -3.587 100 105 2.096 2.243 242.3 247.7 2.61 2.641
2006 11 183 600 0.29 0.642 -3.494 -3.457 100.1 105 2.448 2.539 245.2 249.5 2.604 2.642
2006 11 183 700 0.409 1.155 -3.257 -3.174 100.1 105.1 1.141 1.21 268.4 277.9 2.573 2.618
2006 11 183 800 0.515 1.633 -2.871 -2.668 100.1 105.5 1.386 1.404 230.4 243.5 2.546 2.596
2006 11 183 900 0.674 1.513 -3.467 -3.446 99.9 104.8 2.43 2.866 227.7 235.4 1.691 2.569
2006 11 183 1000 0.964 2.183 -3.584 -3.522 99.1 104.1 3.632 3.847 242.4 248.5 2.511 2.557
2006 11 183 1100 1.847 4.107 -3.185 -2.921 97.7 104.1 2.693 2.817 299.9 302.9 2.485 2.534
2006 11 183 1200 1.84 3.919 -3.381 -3.341 96.8 103.5 1.749 1.974 309.7 314.2 2.493 2.543
2006 11 183 1300 2.166 4.598 -4.309 -4.26 95 102.1 1.012 1.144 260.7 252.8 2.505 2.553
2006 11 183 1400 3.176 7.01 -1.722 -1.585 94.1 103.6 0.702 0.795 226.9 227.5 2.507 2.53
2006 11 183 1500 3.913 8.88 -0.384 -1.763 90.6 100.1 2.512 2.675 315.4 299.5 2.498 2.548
2006 11 183 1600 3.835 8.95 -1.381 -1.76 88.3 98.9 2.621 2.771 211.3 152.9 2.512 2.562
2006 11 183 1700 3.656 8.74 -1.776 -0.819 86.1 99.4 2 2.103 93.1 61.12 2.524 2.578
2006 11 183 1800 3.366 8.21 -0.8 -1.543 84.8 96.8 2.127 2.259 265.6 245.1 2.534 2.59
2006 11 183 1900 2.978 7.46 -1.843 -2.376 85.6 97.6 1.937 2.091 323.6 329 2.543 2.603
2006 11 183 2000 2.022 4.949 -2.178 -3.046 86.6 97.9 1.697 1.914 322.2 332.6 2.55 2.612
2006 11 183 2100 2.155 5.579 -2.697 -2.713 84 97.2 1.689 1.875 159.8 143.3 2.556 2.62
2006 11 183 2200 1.581 4.224 -5.821 -5.089 87.5 97.8 1.74 2.036 62.05 61.04 2.565 2.635
2006 11 183 2300 1.137 3.02 -6.638 -6.072 89.9 98 2.316 2.632 48.7 49.27 2.572 2.634
2006 11 184 0 0.668 1.749 -7.82 -7.39 89.7 98.3 1.028 1.154 231.1 155.6 2.584 2.643
2006 11 184 100 0.316 0.764 -10.88 -10.41 92.5 97.7 2.618 3.032 35.72 34.75 2.594 2.655
2006 11 184 200 0.156 0.343 -9.49 -9.27 94.7 99.9 3.452 3.835 57.33 58.98 2.587 2.647
2006 11 184 300 0.083 0.187 -6.967 -7.02 94.4 101.1 2.25 2.452 53.45 53.14 2.574 2.635
2006 11 184 400 0.083 0.188 -6.407 -6.533 94.7 101.3 2.844 3.029 77.9 78.8 2.571 2.633
2006 11 184 500 0.115 0.255 -5.948 -6.075 94.2 101.4 2.244 2.39 72.2 72.7 2.569 2.632
2006 11 184 600 0.197 0.429 -5.765 -5.874 94.1 101.2 2.039 2.183 66.47 67.11 2.569 2.629
2006 11 184 700 0.373 0.809 -4.676 -4.758 94.2 101.6 1.344 1.494 205.4 202.2 2.565 2.623
2006 11 184 800 0.621 1.347 -4.252 -4.37 93.2 100.9 1.676 1.829 316.1 312.5 2.565 2.62
2006 11 184 900 0.96 2.084 -4.205 -4.391 90.8 99 2.979 3.225 289.2 285.7 2.564 2.619
2006 11 184 1000 1.502 3.21 -6.038 -6.12 89.6 97.3 4.84 5.072 38.99 47.12 2.572 2.632
2006 11 184 1100 2.7 5.404 -6.7 -6.876 75.7 89 3.406 3.587 48.67 50.07 2.577 2.634
2006 11 184 1200 3.222 6.525 -6.392 -6.564 63.51 79.1 1.699 1.81 38.13 38.81 2.581 2.636
2006 11 184 1300 3.568 7.48 -3.824 -3.822 57.56 73.1 0.824 0.835 93 87.1 2.577 2.592
2006 11 184 1400 3.773 8.16 -3.923 -4.056 62.19 70.5 2.219 2.291 90.8 92.4 2.57 2.625
2006 11 184 1500 3.854 8.59 -4.216 -4.251 70.8 76.9 4.875 5.086 95 97.5 2.568 2.625
2006 11 184 1600 3.813 8.7 -4.242 -4.259 74.8 79.8 6.745 7.05 102.6 104.6 2.579 2.622
2006 11 184 1700 3.646 8.48 -3.597 -3.607 76.4 81 6.653 6.913 103.4 105.1 2.582 2.625
2006 11 184 1800 3.364 8 -2.782 -2.774 74.9 79.5 5.595 5.82 107.1 110.3 2.57 2.627
2006 11 184 1900 2.979 7.28 -3.161 -3.122 79.2 84.2 5.822 6.059 123.6 127.4 2.581 2.63
2006 11 184 2000 2.532 6.339 -3.385 -3.324 80.4 85.3 5.616 5.864 121 123.7 2.587 2.634
2006 11 184 2100 2.047 5.26 -3.406 -3.32 79.8 84.7 4.511 4.726 119.4 122.8 2.587 2.633
2006 11 184 2200 1.568 4.112 -4.379 -4.3 78.5 83.2 5.184 5.453 106.2 108.6 2.592 2.638
2006 11 184 2300 1.137 3.002 -5.532 -5.424 77.5 82 5.549 5.848 101 102 2.596 2.645
2006 11 185 0 0.785 1.995 -6.904 -6.781 75.4 79.7 5.787 6.124 92.5 95.3 2.602 2.652
2006 11 185 100 0.476 1.188 -8.06 -7.91 73.3 77 5.947 6.303 93.7 95.5 2.608 2.659
2006 11 185 200 0.27 0.531 -9.15 -8.94 72.5 76 5.928 6.344 88.7 90.8 2.614 2.663
2006 11 185 300 0.183 0.314 -11 -10.74 75.9 78.5 5.621 6.048 82.3 84.2 2.622 2.672
2006 11 185 400 0.187 0.3 -11.99 -11.75 75.4 78.5 5.872 6.287 79.8 81.1 2.628 2.677
2006 11 185 500 0.301 0.421 -11.64 -11.4 73.4 77.4 6.116 6.549 80.8 82.9 2.626 2.677
2006 11 185 600 0.545 0.741 -10.34 -10.19 71.1 74.9 8.34 8.76 89.2 91.1 2.617 2.671
2006 11 185 700 0.877 1.329 -10.51 -10.4 72.6 76.5 9.12 9.54 92.1 94.8 2.619 2.675
2006 11 185 800 1.443 2.435 -9.96 -9.87 74.8 78.5 7.87 8.26 95.6 97.8 2.617 2.673
2006 11 185 900 1.527 2.794 -9.14 -9.05 75.5 79.1 8.09 8.51 95.3 97.2 2.613 2.667
2006 11 185 1000 1.956 3.732 -8.25 -8.19 76.2 79.9 7.42 7.78 94.9 96 2.609 2.662
2006 11 185 1100 1.891 3.733 -7.17 -7.09 76 79.9 7.58 7.95 96.7 99.8 2.604 2.657
2006 11 185 1200 2.816 5.714 -5.76 -5.699 74.3 78.4 7.72 8.08 103.9 106.3 2.598 2.65
2006 11 185 1300 3.874 8.18 -3.893 -3.874 73.6 77.6 7.28 7.58 110.4 112.6 2.59 2.641
2006 11 185 1400 3.743 8.1 -2.573 -2.558 75 79.2 7.71 8.01 108.8 111.3 2.585 2.636
2006 11 185 1500 4.065 8.99 -1.598 -1.598 75.1 79.4 7.56 7.87 108.8 111.8 2.579 2.632
2006 11 185 1600 3.447 7.74 -0.945 -0.922 75.6 79.9 6.722 6.983 110 112.3 2.578 2.627
2006 11 185 1700 3.498 7.9 -0.173 -0.13 74.5 78.9 5.749 5.962 114.7 118 2.575 2.623
2006 11 185 1800 3.497 8.03 0.252 0.319 74 78.6 5.149 5.345 118.7 122.2 2.575 2.621
2006 11 185 1900 2.667 6.417 0.218 0.299 76 80.6 5.094 5.306 113.7 116.7 2.579 2.623
2006 11 185 2000 2.349 5.752 0.09 0.176 78.4 83.1 4.754 4.968 113.3 115.7 2.583 2.624
2006 11 185 2100 2.022 5.09 -0.204 -0.077 81.1 86 3.982 4.211 116.8 119.4 2.586 2.626
2006 11 185 2200 1.303 3.035 -0.556 -0.46 83.7 88.3 4.207 4.444 113.6 116.7 2.588 2.629
2006 11 185 2300 1.26 3.033 -1.05 -0.966 80.9 85.5 4.828 5.074 104 106.7 2.59 2.632
2006 11 186 0 0.787 1.987 -3.435 -3.307 81.6 86.1 5.3 5.651 85.8 87.9 2.602 2.644
2006 11 186 100 0.468 1.167 -5.504 -5.339 81 85.4 5.516 5.897 83.6 85.5 2.611 2.655
2006 11 186 200 0.262 0.505 -6.989 -6.833 79.9 83.9 6.165 6.561 81.8 83.9 2.617 2.661
2006 11 186 300 0.177 0.295 -7.92 -7.73 80.5 83.3 6.676 7.11 79.4 81.6 2.623 2.667
2006 11 186 400 0.18 0.285 -8.89 -8.69 80.1 83.3 6.447 6.874 78.5 80.7 2.629 2.673
2006 11 186 500 0.289 0.399 -9.21 -9.06 77.7 81.7 7.27 7.7 79.8 81.1 2.63 2.675
2006 11 186 600 0.539 0.716 -9.45 -9.32 77.6 81.4 7.59 8.03 79.5 81.1 2.633 2.678
2006 11 186 700 0.864 1.28 -8.98 -8.85 76.2 79.9 8.09 8.52 82.3 83.9 2.63 2.677
2006 11 186 800 1.28 2.083 -8.89 -8.79 75.4 79.1 8.57 9.01 82.3 84.6 2.63 2.679
2006 11 186 900 1.762 3.072 -8.39 -8.3 75.5 79.1 9.12 9.6 85.5 87.5 2.628 2.68
2006 11 186 1000 2.266 4.163 -7.7 -7.62 75 78.6 9.12 9.58 90.6 92.7 2.624 2.68
2006 11 186 1100 2.747 5.273 -6.978 -6.923 75.4 79.4 9.17 9.58 97.2 98.9 2.622 2.676
2006 11 186 1200 3.171 6.319 -5.979 -5.934 75.1 79.2 9.26 9.68 99.9 101.5 2.614 2.672
2006 11 186 1300 3.555 7.35 -4.571 -4.541 75.1 79.2 8.8 9.2 104.8 107 2.611 2.666
2006 11 186 1400 3.65 7.84 -3.184 -3.16 75.5 79.7 8.58 8.96 109.1 112.2 2.605 2.659
2006 11 186 1500 3.812 8.31 -2.092 -2.073 75.3 79.5 8.42 8.78 109.4 112.4 2.6 2.653
2006 11 186 1600 4.011 8.97 -0.997 -0.976 75.1 79.5 7.87 8.18 112.7 115.4 2.596 2.648
2006 11 186 1700 3.297 7.52 -0.362 -0.306 75.9 80.3 7.16 7.44 114.1 117 2.594 2.644
2006 11 186 1800 3.161 7.35 0.008 0.076 77.8 82.2 7.02 7.32 113.3 116 2.592 2.642
2006 11 186 1900 2.958 7.02 0.341 0.44 78.6 83.2 6.989 7.3 118.4 120.5 2.59 2.641
2006 11 186 2000 2.519 6.151 0.431 0.527 80.1 84.9 6.285 6.554 114.2 117.1 2.591 2.642
2006 11 186 2100 2.033 5.087 0.151 0.244 81.7 86.5 6.368 6.638 111.8 114.3 2.594 2.645
2006 11 186 2200 1.547 3.95 -0.276 -0.18 81.5 86.3 6.55 6.826 113 116.2 2.598 2.648
2006 11 186 2300 1.11 2.846 -0.873 -0.777 79.7 84.5 7.48 7.78 110.7 113.8 2.601 2.652
2006 11 187 0 0.615 1.451 -1.886 -1.801 80.8 85.3 7.22 7.51 105.9 108.6 2.606 2.658
2006 11 187 100 0.182 0.398 -2.835 -2.729 79.2 83.6 7.51 7.84 107 109.9 2.61 2.663
2006 11 187 200 0.134 0.286 -2.843 -2.76 76.5 80.6 8.16 8.49 105.5 108.6 2.611 2.663
2006 11 187 300 0.084 0.179 -2.993 -2.902 79.6 83.6 8.23 8.61 106.8 109.6 2.611 2.664
2006 11 187 400 0.079 0.167 -2.357 -2.279 82.5 86.5 8.21 8.58 106.7 109.2 2.608 2.661
2006 11 187 500 0.098 0.21 -1.816 -1.752 85.1 89.3 7.74 8.08 110 113.3 2.606 2.657
2006 11 187 600 0.166 0.355 -1.196 -1.127 85.9 90.1 7.57 7.94 114.1 118.3 2.603 2.654
2006 11 187 700 0.245 0.525 -1.1 -1.04 88.1 92.3 7.78 8.14 114.5 117.6 2.603 2.654
2006 11 187 800 0.572 1.209 -0.844 -0.788 88.7 93.1 7.64 7.98 110.1 114.3 2.602 2.653
2006 11 187 900 0.813 1.724 -0.217 -0.16 88.2 92.5 8.18 8.56 115.3 119.2 2.599 2.651
2006 11 187 1000 1.118 2.416 0.267 0.329 88.3 92.7 7.73 8.1 121.1 125.5 2.598 2.647
2006 11 187 1100 1.717 3.72 0.709 0.766 88.9 93.5 7.92 8.27 129.5 133.4 2.597 2.646
2006 11 187 1200 1.656 3.689 0.595 0.608 94.2 99.6 7.9 8.17 144.9 148.6 2.598 2.645
2006 11 187 1300 1.811 4.126 0.189 0.135 101.1 106.2 9.05 9.38 143.4 146.7 2.584 2.641
2006 11 187 1400 2.247 4.918 0.446 0.364 100.8 105.7 8.96 9.28 143.5 146.1 2.588 2.635
2006 11 187 1500 2.395 5.224 0.4 0.446 100.4 105.6 7.06 6.915 155.9 158.5 2.593 2.638
2006 11 187 1600 2.673 5.597 0.636 0.529 99.6 105.1 6.645 6.619 152.1 155.7 2.59 2.634
2006 11 187 1700 2.393 5.098 0.736 0.638 99.7 105.3 6.189 6.266 148.8 152.8 2.594 2.637
2006 11 187 1800 1.843 3.875 0.829 0.734 100.2 105.7 5.493 5.571 150 153 2.593 2.639
2006 11 187 1900 1.678 3.736 0.598 0.508 100.2 105.3 4.889 4.7 165.5 166.3 2.598 2.642
2006 11 187 2000 1.27 2.962 0.506 0.494 100.4 105.4 3.312 3.224 160.2 162.1 2.595 2.641
2006 11 187 2100 1.116 2.496 0.675 0.725 101 106.1 3.938 4.079 136.8 139.6 2.591 2.634
2006 11 187 2200 0.721 1.652 0.573 0.586 101.6 106.6 4.195 4.33 146.1 150.4 2.16 2.635
2006 11 187 2300 0.48 1.078 0.349 0.364 102.1 107.1 4.899 5.113 138.7 141.9 2.594 2.638
2006 11 188 0 0.277 0.618 0.373 0.394 102.2 107.2 4.624 4.845 120.3 123.8 2.591 2.635
2006 11 188 100 0.198 0.445 0.565 0.592 101.8 106.8 5.303 5.544 112.7 115.9 2.589 2.635
2006 11 188 200 0.082 0.176 0.818 0.854 100.9 106 6.143 6.403 110.4 114 2.589 2.636
2006 11 188 300 0.096 0.192 1.135 1.187 102.4 107.4 6.064 6.334 133.9 136.6 2.593 2.635
2006 11 188 400 0.065 0.135 0.851 0.888 103.5 108.4 5.609 5.875 136.2 138.8 2.612 2.638
2006 11 188 500 0.082 0.168 0.776 0.81 103.8 108.7 5.095 5.347 134.4 137.7 0.876 2.641
2006 11 188 600 0.151 0.305 0.824 0.862 103.9 108.9 4.676 4.917 133.7 137.9 2.636 2.644
2006 11 188 700 0.225 0.462 0.777 0.819 103.9 108.8 4.106 4.341 126.9 130.5 2.626 2.646
2006 11 188 800 0.427 0.879 0.902 0.954 103.8 108.8 4.061 4.289 133.8 137.3 2.613 2.647
2006 11 188 900 0.576 1.176 1.073 1.139 103.5 108.7 4.133 4.402 130.8 134.1 2.611 2.649
2006 11 188 1000 1.017 2.001 1.159 1.232 102.8 108.4 4.226 4.496 116.1 119.2 2.605 2.653
2006 11 188 1100 1.439 2.806 1.545 1.62 99.8 106.7 4.327 4.593 105.3 107.9 2.608 2.654
2006 11 188 1200 2.997 5.504 2.232 2.318 93.7 100.2 5.384 5.705 101.6 103 2.607 2.654
2006 11 188 1300 3.385 6.215 2.529 2.608 89.5 94.9 6.172 6.517 101.4 104.2 2.61 2.664
2006 11 188 1400 3.606 6.813 2.585 2.671 87.3 91.9 5.643 5.964 103.3 105.1 2.618 2.668
2006 11 188 1500 3.659 7.14 2.7 2.799 86.3 90.9 6.092 6.445 103.7 105.8 2.622 2.676
2006 11 188 1600 3.635 7.31 2.818 2.938 85.7 90.3 6.241 6.595 98 99.2 2.634 2.684
2006 11 188 1700 3.508 7.27 2.943 3.081 85.1 89.8 6.316 6.68 97.4 98.9 2.636 2.69
2006 11 188 1800 3.225 6.823 3.03 3.177 84.3 88.9 6.418 6.772 98 100.9 2.642 2.696
2006 11 188 1900 2.86 6.191 3.091 3.257 84 88.7 6.355 6.712 96.5 97.6 2.651 2.707
2006 11 188 2000 2.427 5.37 3.236 3.404 83.7 88.4 6.672 7.04 100.3 102.1 2.652 2.707
2006 11 188 2100 1.885 4.266 3.352 3.522 83.1 87.7 7.03 7.42 96.3 98.2 2.653 2.712
2006 11 188 2200 1.427 3.272 3.326 3.488 83.2 87.7 7.13 7.52 91.7 93.7 2.658 2.716
2006 11 188 2300 1.008 2.31 3.415 3.584 81.6 86 7.49 7.89 93.2 95.4 2.66 2.719
2006 11 189 0 0.688 1.514 3.289 3.452 82.4 86.7 7.56 7.95 96.4 98.5 2.658 2.716
2006 11 189 100 0.425 0.911 3.059 3.212 83 87.2 7.8 8.21 92.6 94.5 2.66 2.717
2006 11 189 200 0.223 0.398 3.094 3.251 82.3 86.4 8.15 8.55 96.5 98.3 2.659 2.718
2006 11 189 300 0.147 0.241 2.887 3.052 83.5 87.3 8.39 8.79 94.4 96.9 2.659 2.719
2006 11 189 400 0.145 0.231 2.735 2.889 83.5 87.4 8.45 8.85 94.6 96.6 2.66 2.719
2006 11 189 500 0.227 0.317 2.299 2.425 83.1 87.5 8.56 8.96 96.4 98.1 2.663 2.723
2006 11 189 600 0.442 0.569 2.125 2.259 82.1 86.4 8.45 8.84 98.2 100.5 2.665 2.724
2006 11 189 700 0.657 0.924 2.076 2.203 80.9 85.1 8.71 9.1 99.7 102.4 2.666 2.725
2006 11 189 800 1.105 1.674 1.909 2.019 81.1 85.3 8.79 9.18 101.6 103.2 2.665 2.726
2006 11 189 900 1.612 2.594 2.1 2.201 80.5 84.8 8.6 8.97 100 102.6 2.666 2.726
2006 11 189 1000 2.114 3.574 2.238 2.33 80.1 84.3 9 9.38 97.1 100.2 2.665 2.725
2006 11 189 1100 2.59 4.544 2.753 2.858 77.5 81.6 9.28 9.67 99.4 101.7 2.661 2.724
2006 11 189 1200 3.06 5.518 2.915 3.025 77.3 81.4 8.54 8.94 97.2 100.6 2.664 2.723
2006 11 189 1300 3.398 6.284 2.95 3.06 78.4 82.6 9.06 9.48 94.8 97.2 2.668 2.724
2006 11 189 1400 3.616 6.827 3.028 3.144 78.4 82.7 9.03 9.48 94.7 96.3 2.668 2.727
2006 11 189 1500 3.73 7.18 3.009 3.125 79 83.4 8.23 8.64 95.8 98.7 2.677 2.734
2006 11 189 1600 3.723 7.31 3.138 3.268 78.5 82.9 8.02 8.43 97.5 100.9 2.678 2.743
2006 11 189 1700 3.568 7.14 3.105 3.241 79.3 83.8 7.88 8.29 98.4 100.2 2.682 2.746
2006 11 189 1800 3.274 6.658 3.078 3.22 79.6 84.1 7.26 7.64 95 97.5 2.685 2.75
2006 11 189 1900 2.894 6.001 3.189 3.34 79.4 83.9 7.71 8.12 92.2 94.5 2.688 2.754
2006 11 189 2000 2.453 5.2 3.317 3.474 78.8 83.3 8 8.39 94.9 96.9 2.69 2.756
2006 11 189 2100 1.985 4.316 3.406 3.568 78.4 82.9 8.39 8.8 95.6 97.6 2.697 2.76
2006 11 189 2200 1.525 3.389 3.333 3.483 78.6 83.1 9 9.42 92.9 94.2 2.698 2.76
2006 11 189 2300 1.081 2.422 3.186 3.327 78.5 82.9 8.97 9.38 92.5 95.5 2.702 2.762
2006 11 190 0 0.721 1.563 2.816 2.946 79.3 83.6 8.39 8.8 96.9 99.1 2.706 2.762
2006 11 190 100 0.426 0.913 2.36 2.477 79.2 83.5 8.83 9.25 97.3 100 2.708 2.766
2006 11 190 200 0.236 0.378 1.676 1.792 79.9 84 8.47 8.86 100.4 103.9 2.711 2.768
2006 11 190 300 0.156 0.211 0.96 1.085 79.6 83.1 9.19 9.61 100.2 103.6 2.714 2.773
2006 11 190 400 0.155 0.214 -0.024 0.073 78.1 81.8 9.85 10.27 100.1 102.6 2.719 2.78
2006 11 190 500 0.245 0.301 -0.974 -0.902 76.7 81 9.96 10.39 100 102.3 2.723 2.785
2006 11 190 600 0.469 0.559 -1.756 -1.677 75.1 79.2 10.34 10.76 98.7 99.9 2.726 2.789
2006 11 190 700 0.788 1.037 -2.377 -2.3 74.8 78.9 10.41 10.83 98.2 101.1 2.73 2.793
2006 11 190 800 1.189 1.726 -2.784 -2.71 76.9 81.1 11.34 11.81 102.4 104.7 2.732 2.797
2006 11 190 900 1.669 2.585 -2.898 -2.855 77.9 82.1 11.92 12.42 107.4 110.4 2.734 2.799
2006 11 190 1000 1.855 3.194 -2.315 -2.299 81.2 85.6 10.96 11.41 105.8 108.6 2.733 2.796
2006 11 190 1100 1.579 3.007 -1.357 -1.359 86.1 90.7 10.53 10.94 104.4 106.7 2.728 2.789
2006 11 190 1200 1.914 3.673 -0.207 -0.218 89.6 94.3 9.55 9.92 104.9 107.8 2.723 2.783
2006 11 190 1300 2.371 4.53 0.892 0.913 89.5 94.2 8.2 8.54 109.3 112.1 2.72 2.778
2006 11 190 1400 2.654 5.096 1.456 1.524 90 94.7 5.992 6.281 114.7 118.3 2.724 2.777
2006 11 190 1500 2.847 5.477 1.607 1.641 90.8 96.3 3.562 3.751 139.9 142.4 2.727 2.775
2006 11 190 1600 2.681 5.223 1.47 1.505 92.3 97.8 3.324 3.517 134.9 138.7 2.731 2.776
2006 11 190 1700 2.149 4.281 1.189 1.202 95.6 101.1 3.809 4.003 140.3 144.5 2.735 2.777
2006 11 190 1800 2.101 4.151 0.875 0.891 98.5 104.7 3.885 4.066 142.1 145.5 2.735 2.778
2006 11 190 1900 2.106 4.078 0.702 0.693 99.4 105.3 4.695 4.874 144.2 148 2.736 2.782
2006 11 190 2000 1.758 3.387 0.7 0.692 100.4 106 4.64 4.857 139.7 143.6 2.736 2.784
2006 11 190 2100 1.327 2.567 0.729 0.711 101.3 106.5 4.375 4.493 143.6 147.2 2.738 2.785
2006 11 190 2200 0.745 1.465 0.552 0.543 102.1 107.2 3.653 3.551 156.7 159.5 2.742 2.791
2006 11 190 2300 0.474 0.945 0.392 0.388 102.6 107.7 2.819 2.734 160.1 162 2.743 2.787
2006 11 191 0 0.367 0.71 0.408 0.394 102.9 108 2.391 2.526 141.6 144.7 2.743 2.785
2006 11 191 100 0.242 0.466 0.435 0.389 102.9 108.1 3.288 3.428 145.6 149 2.743 2.786
2006 11 191 200 0.098 0.194 0.34 0.273 103 108.2 4.27 4.285 151.4 154.1 2.746 2.786
2006 11 191 300 0.05 0.102 0.277 0.268 103.5 108.5 4.515 4.362 157.9 160.4 2.767 2.784
2006 11 191 400 0.024 0.055 0.314 0.309 103.8 108.7 3.482 3.332 159.1 162 1.392 2.325
2006 11 191 500 0.065 0.131 0.098 0.082 103.9 108.8 3.168 3.031 176.7 176.6 2.783 2.323
2006 11 191 600 0.196 0.382 0.002 -0.02 103.9 108.7 2.112 2.073 159.6 161.1 2.772 2.791
2006 11 191 700 0.391 0.765 0.084 0.063 103.7 108.7 1.557 1.649 140.6 144.2 2.752 2.79
2006 11 191 800 0.557 1.095 0.294 0.16 103 108.4 1.409 1.506 109.4 111.8 2.746 2.789
2006 11 191 900 0.801 1.566 0.685 0.51 100.3 106.7 1.52 1.637 58.27 59.1 2.745 2.788
2006 11 191 1000 1.007 1.94 0.945 0.89 98.5 105.3 1.955 2.099 47.15 48.34 2.745 2.786
2006 11 191 1100 1.426 2.705 1.102 1.142 96.9 103.9 2.073 2.241 53.57 54.63 2.741 2.787
2006 11 191 1200 1.651 3.174 1.205 1.242 97.1 103.7 2.211 2.378 57.39 57.58 2.741 2.791
2006 11 191 1300 2.029 3.868 1.134 1.158 97.8 103.9 2.946 3.152 60.82 61.27 2.743 2.796
2006 11 191 1400 2.661 4.968 1.409 1.459 95.2 100.6 3.26 3.49 55.64 56.62 2.743 2.794
2006 11 191 1500 2.637 5.029 1.486 1.535 94.5 99.4 3.257 3.484 53.14 53.8 2.745 2.796
2006 11 191 1600 3.104 5.843 1.716 1.768 91.7 96.5 2.536 2.73 49.03 50.89 2.748 2.797
2006 11 191 1700 3.191 6.153 1.922 1.983 89.1 93.9 2.247 2.458 49.79 50.63 2.751 2.798
2006 11 191 1800 2.917 5.816 1.895 1.97 88.1 93 2.352 2.583 58.76 60 2.753 2.801
2006 11 191 1900 2.849 5.642 2.014 2.148 86.4 91 2.128 2.38 68.57 70.2 2.759 2.806
2006 11 191 2000 2.127 4.13 1.872 1.981 89.1 93.8 2.569 2.832 69.38 70.8 2.762 2.812
2006 11 191 2100 2.224 4.796 1.878 1.972 88.5 93.6 3.089 3.333 67.66 68.58 2.765 2.815
2006 11 191 2200 1.458 3.38 1.82 1.928 87 91.7 4.253 4.533 81.5 83.2 2.767 2.817
2006 11 191 2300 1.041 2.443 1.407 1.507 86.3 90.9 4.182 4.446 77.2 78.9 2.769 2.82
2006 11 192 0 0.703 1.591 0.965 1.05 84.2 88.6 4.943 5.22 80.2 82.8 2.771 2.823
2006 11 192 100 0.399 0.896 0.327 0.413 82.1 86.3 5.835 6.145 79.5 81.5 2.775 2.828
2006 11 192 200 0.207 0.322 -0.308 -0.218 79.5 83.5 6.635 6.952 86.6 88.5 2.78 2.833
2006 11 192 300 0.139 0.187 -1.132 -1.016 80.1 83.5 6.997 7.33 93.2 95.5 2.782 2.839
2006 11 192 400 0.138 0.186 -1.82 -1.722 80.7 84.3 7.93 8.3 92.9 96.2 2.784 2.844
2006 11 192 500 0.23 0.271 -2.619 -2.524 80.9 85.3 7.84 8.2 94.2 96.6 2.791 2.848
2006 11 192 600 0.465 0.525 -3.034 -2.948 79.5 83.8 6.749 7.04 101.8 104.4 2.796 2.85
2006 11 192 700 0.785 1 -3.349 -3.276 78.6 82.8 7.97 8.31 99.9 102.2 2.797 2.854
2006 11 192 800 1.194 1.698 -3.426 -3.368 77.3 81.5 9.12 9.49 100.2 102.6 2.797 2.857
2006 11 192 900 1.671 2.555 -3.412 -3.369 77.2 81.3 9.41 9.79 98.4 102.4 2.796 2.86
2006 11 192 1000 2.179 3.498 -3.087 -3.063 77.6 81.8 9.02 9.36 100.7 103.4 2.796 2.858
2006 11 192 1100 2.659 4.441 -2.425 -2.422 78.8 83 8.48 8.81 107.7 110.5 2.796 2.854
2006 11 192 1200 3.026 5.278 -1.629 -1.636 81.6 86 6.923 7.21 120.8 123.5 2.794 2.847
2006 11 192 1300 2.342 4.502 -0.908 -0.953 88.2 93.1 5.13 5.314 134.9 138.4 2.792 2.84
2006 11 192 1400 2.716 5.221 -0.634 -0.68 96.1 101.7 4.128 4.267 137.2 140.3 2.791 2.838
2006 11 192 1500 2.852 5.48 -0.405 -0.466 95.5 101.2 4.45 4.573 142.4 146.8 2.789 2.837
2006 11 192 1600 2.977 5.716 -0.327 -0.353 95.3 100.7 3.917 3.728 159.7 162 2.79 2.837
2006 11 192 1700 2.841 5.476 -0.26 -0.269 95 100.2 3.288 3.102 160.9 163.1 2.79 2.837
2006 11 192 1800 2.827 5.481 -0.156 -0.15 94.7 99.9 3.017 2.847 165.1 166.5 2.791 2.836
2006 11 192 1900 2.275 4.402 -0.16 -0.169 96.2 101.4 2.878 2.737 159.7 161.7 2.793 2.837
2006 11 192 2000 1.797 3.453 -0.069 -0.073 97.3 102.2 2.428 2.29 165.1 166.4 2.795 2.836
2006 11 192 2100 1.233 2.368 -0.247 -0.265 99.6 104.4 1.965 2.074 185.4 186.7 2.796 2.838
2006 11 192 2200 0.922 1.747 -0.451 -0.486 101 105.9 1.502 1.725 193.6 195 2.798 2.841
2006 11 192 2300 0.651 1.25 -0.617 -0.649 101.2 106.1 1.712 1.872 188.8 189.4 2.8 2.843
2006 11 193 0 0.509 0.994 -0.872 -0.887 99.9 105.5 1.173 2.133 202.6 210.7 2.802 2.844
2006 11 193 100 0.186 0.366 -0.996 -1.052 98.3 103.7 1.145 1.821 203.2 210.6 2.803 2.846
2006 11 193 200 0.143 0.272 -1.162 -1.184 102 107 2.487 2.494 184 185.1 2.803 2.848
2006 11 193 300 0.096 0.182 -1.516 -1.525 102.3 107.2 2.807 2.719 180.6 180.6 2.808 2.851
2006 11 193 400 0.088 0.166 -1.85 -1.859 102.1 106.9 1.84 2.365 196.6 199.3 2.809 2.85
2006 11 193 500 0.084 0.163 -2.173 -2.188 101.8 106.7 1.452 1.786 195.2 197.9 2.81 2.855
2006 11 193 600 0.142 0.278 -2.129 -2.145 101.5 106.4 1.766 1.646 167.6 169.4 2.81 2.853
2006 11 193 700 0.23 0.457 -1.956 -1.967 101.5 106.3 1.018 0.982 161.7 164.3 2.809 2.856
2006 11 193 800 0.504 0.972 -1.863 -1.865 100.6 105.6 1.282 1.267 136.3 138.9 2.809 2.856
2006 11 193 900 1.128 1.937 -1.613 -1.586 96.7 102.1 1.985 2.108 121.6 124.8 2.808 2.855
2006 11 193 1000 1.741 3.06 -1.663 -1.616 91.6 97 1.643 1.8 86.8 88.3 2.811 2.861
2006 11 193 1100 2.245 3.94 -0.888 -0.838 90 95.1 2.051 2.197 118.5 121.7 2.808 2.859
2006 11 193 1200 2.82 5.159 -0.77 -0.719 90.7 94.7 1.298 1.5 221 226 2.809 2.855
2006 11 193 1300 2.679 5.17 1.432 1.38 83.1 88 0.655 0.646 246.1 270.7 2.808 2.851
2006 11 193 1400 2.772 5.362 2.18 1.164 74.4 89.1 0.287 0.287 59.33 54.21 2.807 2.772
2006 11 193 1500 2.823 5.469 0.979 0.141 81.3 88.4 0.907 0.901 118.4 121.4 2.807 2.608
2006 11 193 1600 2.887 5.584 3.59 2.71 72.4 80.2 0.621 0.629 180.6 166.2 2.807 2.69
2006 11 193 1700 3.81 7.56 2.168 3.049 79.7 80.8 1.743 1.84 21.43 16.3 2.809 2.854
2006 11 193 1800 3.077 6.21 2.663 2.79 77.7 82.9 1.389 1.464 239.1 237.3 2.816 2.859
2006 11 193 1900 2.659 5.663 2.265 1.325 78.4 89.2 1.64 1.754 325.1 333.9 2.815 2.863
2006 11 193 2000 2.414 5.411 1.372 1.562 82.1 87.3 2.333 2.456 102.2 109.3 2.818 2.869
2006 11 193 2100 1.932 4.506 0.27 0.672 87.4 90.6 1.946 2.069 45.1 40.65 2.821 2.871
2006 11 193 2200 1.453 3.51 0.104 0.25 85.6 91.1 1.031 1.108 72.6 76.6 2.824 2.873
2006 11 193 2300 1.024 2.5 -0.62 -0.573 90 95.9 0.89 1.035 67.9 68.46 2.828 2.88
2006 11 194 0 0.677 1.599 -0.915 -0.735 84.2 88.2 2.417 2.634 55.22 56.62 2.829 2.881
2006 11 194 100 0.374 0.891 -2.427 -2.301 85.3 89.3 3.536 3.849 64.74 64.97 2.836 2.89
2006 11 194 200 0.192 0.313 -3.154 -3.044 86.1 90.3 4.497 4.827 67.56 68.61 2.84 2.892
2006 11 194 300 0.119 0.165 -3.972 -3.869 84.6 88.1 6.002 6.323 74.6 76.5 2.844 2.896
2006 11 194 400 0.117 0.155 -4.866 -4.792 82.3 86.1 6.91 7.26 76.5 77.9 2.847 2.903
2006 11 194 500 0.193 0.231 -5.715 -5.681 82 86.6 6.908 7.23 75.8 78 2.852 2.908
2006 11 194 600 0.42 0.496 -5.913 -5.86 79.5 83.9 7.49 7.84 79 81 2.853 2.911
2006 11 194 700 0.762 0.977 -6.104 -6.056 78 82.3 8.06 8.43 79.7 80.3 2.855 2.913
2006 11 194 800 1.169 1.691 -6.322 -6.285 77 81.3 8.98 9.37 83.7 85.1 2.854 2.918
2006 11 194 900 1.646 2.571 -6.071 -6.04 77.7 82 9.1 9.48 86.8 88 2.856 2.917
2006 11 194 1000 2.145 3.539 -5.253 -5.227 77.1 81.4 9.21 9.59 92.8 94.8 2.85 2.914
2006 11 194 1100 2.623 4.519 -4.691 -4.679 77.3 81.5 9.76 10.15 95.3 97.1 2.848 2.912
2006 11 194 1200 3.047 5.434 -4.03 -4.035 77.7 82 8.98 9.31 98.4 100.4 2.846 2.908
2006 11 194 1300 3.377 6.23 -3.695 -3.717 77.4 81.8 9.07 9.42 95.9 98.1 2.842 2.906
2006 11 194 1400 3.601 6.844 -2.531 -2.552 75.9 80.3 8.99 9.35 102.5 104.9 2.838 2.902
2006 11 194 1500 3.718 7.25 -0.941 -0.962 75.7 80.2 7.35 7.63 106.4 108.9 2.833 2.89
2006 11 194 1600 3.711 7.4 0.207 0.222 77 81.6 7.67 7.98 103.6 107.1 2.828 2.885
2006 11 194 1700 3.5 7.16 0.947 1.002 79.1 83.7 6.969 7.28 111.4 114.7 2.824 2.882
2006 11 194 1800 3.236 6.779 1.402 1.493 81.2 86 6.741 7.07 118.7 122.6 2.823 2.879
2006 11 194 1900 2.855 6.159 1.536 1.656 82.7 87.6 5.895 6.218 120.9 125 2.823 2.878
2006 11 194 2000 2.409 5.367 1.584 1.714 83.9 88.7 5.488 5.811 122.2 124 2.824 2.877
2006 11 194 2100 1.927 4.446 1.621 1.753 84.2 89 5.485 5.794 119.5 123.9 2.825 2.879
2006 11 194 2200 1.452 3.459 1.3 1.426 85.9 90.7 5.333 5.673 120.8 125 2.828 2.881
2006 11 194 2300 1.014 2.438 0.883 1.01 87.4 92.2 5.331 5.675 118.8 122.3 2.83 2.884
2006 11 195 0 0.685 1.594 0.537 0.671 87.6 92.2 5.644 5.989 117 120.3 2.832 2.886
2006 11 195 100 0.381 0.889 0.008 0.129 88.3 92.8 6.09 6.45 114.1 117.3 2.834 2.889
2006 11 195 200 0.194 0.3 -0.264 -0.146 87.6 91.9 6.862 7.21 112.3 115.3 2.834 2.891
2006 11 195 300 0.117 0.152 -0.838 -0.694 86.8 90.4 6.451 6.807 111.8 114 2.838 2.894
2006 11 195 400 0.112 0.14 -1.277 -1.145 83.8 87.6 7.02 7.39 107.3 111.6 2.84 2.898
2006 11 195 500 0.195 0.219 -2.042 -1.942 81.1 85.5 7.41 7.79 103.1 105.1 2.843 2.903
2006 11 195 600 0.403 0.474 -2.656 -2.552 79.2 83.5 8.08 8.48 97 98.6 2.846 2.909
2006 11 195 700 0.76 0.959 -3.105 -3.016 76.6 80.8 8.37 8.78 91 93.3 2.848 2.913
2006 11 195 800 1.165 1.658 -3.491 -3.422 75.1 79.3 8.49 8.9 82.5 83.7 2.851 2.917
2006 11 195 900 1.639 2.52 -3.36 -3.296 73.5 77.6 9.02 9.46 80.3 82.4 2.853 2.918
2006 11 195 1000 2.153 3.487 -2.711 -2.65 72.6 76.6 9.26 9.7 82.8 84.9 2.849 2.92
2006 11 195 1100 2.606 4.391 -1.814 -1.753 73.1 77 8.35 8.74 84.6 87.5 2.847 2.915
2006 11 195 1200 3.058 5.334 -0.383 -0.335 74.2 78.3 7.26 7.61 81.7 83.1 2.844 2.905
2006 11 195 1300 3.44 6.185 1.017 1.063 76.4 80.6 6.177 6.479 86.1 87.3 2.836 2.895
2006 11 195 1400 3.641 6.712 1.749 1.819 79.2 83.7 5 5.285 87.5 89.9 2.835 2.891
2006 11 195 1500 3.751 7.08 2.106 2.209 80.6 85.3 3.541 3.815 82.4 84.9 2.835 2.892
2006 11 195 1600 3.716 7.19 2.293 2.431 81.1 86 2.428 2.675 77.8 78.7 2.837 2.888
2006 11 195 1700 3.552 7.07 2.884 3.023 78.4 83.3 1.449 1.625 107 97.3 2.843 2.889
2006 11 195 1800 3.253 6.665 3.124 3.293 77.8 82.5 1.321 1.444 172 166.4 2.847 2.889
2006 11 195 1900 2.87 6.095 3.26 2.876 78.2 85.2 1.591 1.736 295.3 293.9 2.849 2.895
2006 11 195 2000 2.411 5.33 3.579 3.301 71.6 77.8 1.194 1.298 184.8 185.2 2.85 2.898
2006 11 195 2100 1.937 4.466 2.91 3.044 66.07 70.6 0.75 0.85 255.4 264.5 2.853 2.899
2006 11 195 2200 1.467 3.514 0.38 0.338 82.3 87.6 1.216 1.479 199.8 210.6 2.861 2.909
2006 11 195 2300 1.028 2.504 -1.417 -1.346 89.5 94.9 2.351 2.493 141.8 144.8 2.866 2.916
2006 11 196 0 0.63 1.353 -1.553 -1.521 96.6 101.6 2.845 2.945 148.6 151 2.866 2.917
2006 11 196 100 0.368 0.691 -1.601 -1.621 100.6 105.5 2.41 2.435 159.4 161.7 2.864 2.916
2006 11 196 200 0.117 0.225 -1.902 -1.931 102.3 107.2 2.845 2.97 128 131.3 2.864 2.917
2006 11 196 300 0.069 0.133 -2.813 -2.831 101.5 106.6 3.051 3.188 105.6 107.2 2.871 2.919
2006 11 196 400 0.092 0.124 -4.024 -3.967 100 104.9 3.026 3.231 81.1 82.8 2.879 2.928
2006 11 196 500 0.068 0.13 -4.591 -4.478 99.1 104.1 3.21 3.476 75.4 76.3 2.881 2.933
2006 11 196 600 0.099 0.176 -4.887 -4.748 98.3 103.1 2.961 3.243 80.8 82.9 2.882 2.935
2006 11 196 700 0.365 0.499 -4.553 -4.252 97.2 102.5 0.461 0.501 142.8 153.5 2.885 2.935
2006 11 196 800 0.884 1.212 -4.917 -4.587 89.7 93.8 0.082 0.191 208.1 224.3 2.893 2.944
2006 11 196 900 1.588 2.416 -4.564 -3.893 81.6 86.9 0.371 0.371 209.6 213.7 2.891 2.943
2006 11 196 1000 1.408 2.543 -2.85 -2.637 89 93.2 0.695 0.7 119.9 118.4 2.88 2.93
2006 11 196 1100 1.589 3.022 -1.155 -1.08 94.8 99.2 1.298 1.338 68.16 74.6 2.869 2.918
2006 11 196 1200 1.837 3.588 -0.416 -0.254 89 93.6 0.623 0.623 87.9 87.7 2.867 2.914
2006 11 196 1300 1.978 3.923 -0.807 -0.784 92.9 97.2 1.12 1.277 192.8 198 2.867 2.823
2006 11 196 1400 2.464 4.828 -0.03 -0.111 87 91.8 1.159 1.127 153 156.7 2.867 2.73
2006 11 196 1500 2.521 4.982 -0.554 -0.596 93.1 97.7 1.97 1.999 176.8 178.4 2.866 2.821
2006 11 196 1600 2.405 4.784 -0.721 -0.772 96.1 100.7 1.873 1.94 184.3 185.7 2.867 2.917
2006 11 196 1700 2.77 5.419 -0.613 -0.663 95.1 99.8 2.204 2.173 178.8 179.8 2.867 2.917
2006 11 196 1800 2.758 5.368 -0.465 -0.549 94 98.8 2.334 2.277 169.3 171.4 2.871 2.919
2006 11 196 1900 2.103 4.12 -0.439 -0.592 95 100.1 2.378 2.341 153.4 157 2.877 2.92
2006 11 196 2000 1.747 3.387 -0.72 -0.841 96.3 101.4 2.901 2.846 156.7 159.4 2.879 2.919
2006 11 196 2100 1.615 3.109 -1.034 -1.112 97.6 102.9 3.757 3.879 141.1 145 2.88 2.921
2006 11 196 2200 0.833 1.607 -1.301 -1.342 100.8 106 4.521 4.712 134.9 138.9 2.879 2.925
2006 11 196 2300 0.633 1.209 -1.284 -1.32 101.4 106.4 4.947 5.168 135.9 139.3 2.878 2.924
2006 11 197 0 0.379 0.724 -1.175 -1.209 101.5 106.5 4.793 4.942 145.7 148.3 2.878 2.923
2006 11 197 100 0.186 0.36 -1.106 -1.136 101.4 106.3 4.557 4.682 146.5 149.5 2.878 2.92
2006 11 197 200 0.101 0.196 -1.032 -1.055 101.7 106.6 4.188 4.312 143.8 147.2 2.399 2.922
2006 11 197 300 0.065 0.125 -0.958 -0.969 100.8 105.7 3.837 4.042 133.3 137 2.878 2.921
2006 11 197 400 0.058 0.111 -0.983 -0.964 100.1 105 2.626 2.75 142.1 145.9 2.88 2.921
2006 11 197 500 0.146 0.229 -1.234 -1.199 98.7 103.6 3.565 3.77 133.2 135.7 2.88 2.923
2006 11 197 600 0.272 0.412 -2.64 -2.589 96.9 101.8 4.224 4.477 108.3 111.8 2.887 2.935
2006 11 197 700 0.69 1.034 -2.331 -2.268 95.4 100.3 4.182 4.431 115.2 119.3 2.886 2.934
2006 11 197 800 0.963 1.564 -1.423 -1.38 95.2 100 4.196 4.421 133.4 136.7 2.882 2.928
2006 11 197 900 1.134 1.978 -0.967 -0.934 95.3 100.1 4.8 5.043 131.9 134.1 2.879 2.926
2006 11 197 1000 1.289 2.307 -0.48 -0.449 95 99.8 5.042 5.276 129.7 133.8 2.877 2.923
2006 11 197 1100 2.422 4.223 0.035 0.067 92.4 97.2 5.223 5.474 127.6 132 2.874 2.922
2006 11 197 1200 2.3 4.247 0.25 0.274 93.5 98.5 5.095 5.335 132.4 135 2.873 2.921
2006 11 197 1300 2.52 4.719 0.625 0.65 92.8 97.9 4.504 4.717 131.9 136.3 2.873 2.919
2006 11 197 1400 3.166 5.871 0.965 0.972 91.4 96.6 4.524 4.752 133.2 136.4 2.872 2.918
2006 11 197 1500 3.687 6.988 1.115 1.149 90.5 95.7 4.633 4.86 127.3 130.9 2.869 2.922
2006 11 197 1600 3.324 6.449 1.244 1.292 89.5 94.6 4.602 4.843 128.1 132.6 2.871 2.926
2006 11 197 1700 2.747 5.39 1.27 1.333 89.3 94.2 5.14 5.402 126.9 129.3 2.874 2.927
2006 11 197 1800 2.733 5.577 1.377 1.464 88.3 93.2 4.539 4.791 118.3 123.2 2.875 2.931
2006 11 197 1900 2.084 4.047 1.331 1.409 90.1 94.8 4.184 4.419 117.7 120.9 2.879 2.933
2006 11 197 2000 2.248 4.794 1.454 1.541 87 91.9 4.84 5.1 127.3 130.7 2.885 2.933
2006 11 197 2100 1.848 4.362 1.235 1.351 86.9 91.8 4.925 5.213 123.6 126 2.888 2.937
2006 11 197 2200 1.38 3.395 1.025 1.13 88.1 93 4.997 5.307 116.4 121.2 2.889 2.939
2006 11 197 2300 0.966 2.406 0.933 1.025 87.9 92.7 5.644 5.952 110.3 112.8 2.89 2.938
2006 11 198 0 0.624 1.496 0.773 0.862 84.9 89.4 7.37 7.72 106.7 108.8 2.887 2.942
2006 11 198 100 0.291 0.699 0.456 0.545 83.2 87.5 8.57 8.95 105.5 108.7 2.889 2.946
2006 11 198 200 0.091 0.162 -0.117 -0.036 84 88.2 9.1 9.51 102.5 105.5 2.891 2.95
2006 11 198 300 0.049 0.093 -0.311 -0.253 83.7 87.7 10.27 10.7 101.2 104.2 2.894 2.952
2006 11 198 400 0.037 0.071 -0.383 -0.325 83.1 87.1 10.28 10.72 99.2 101.4 2.892 2.953
2006 11 198 500 0.062 0.116 -0.358 -0.312 83.4 87.5 9.57 9.97 96.9 99.2 2.897 2.952
2006 11 198 600 0.096 0.183 -0.094 -0.041 82.6 86.6 9.1 9.5 96.2 97 2.895 2.951
2006 11 198 700 0.239 0.443 0.249 0.308 82.1 86.1 9.02 9.41 102.8 104.3 2.896 2.949
2006 11 198 800 0.447 0.821 0.58 0.639 82 86.1 9.35 9.76 108.4 111.4 2.894 2.952
2006 11 198 900 1.18 1.994 0.82 0.885 80.6 84.7 9.26 9.66 106.7 108.8 2.898 2.955
2006 11 198 1000 1.106 2.014 1.219 1.277 82.1 86.3 9.03 9.41 106.6 109 2.897 2.953
2006 11 198 1100 1.765 3.142 1.578 1.647 82.1 86.3 8.03 8.39 112.1 114.2 2.893 2.949
2006 11 198 1200 2.113 3.787 1.818 1.882 82.5 86.8 7.45 7.77 105.6 107.4 2.893 2.947
2006 11 198 1300 2.269 4.233 2.084 2.163 82 86.3 7.54 7.85 105.1 107.8 2.898 2.95
2006 11 198 1400 2.789 5.16 2.311 2.399 81.4 85.7 7.57 7.9 104.8 108 2.893 2.949
2006 11 198 1500 3.018 5.628 2.647 2.743 79.7 84 8.05 8.4 104.8 108.1 2.892 2.955
2006 11 198 1600 2.571 4.828 2.728 2.838 80 84.2 7.88 8.25 107.6 109.9 2.898 2.957
2006 11 198 1700 2.238 4.228 2.987 3.13 78.6 82.6 7.13 7.48 102 104.8 2.896 2.955
2006 11 198 1800 2.332 4.415 3.145 3.275 77.5 81.6 7.43 7.79 96.3 98.4 2.898 2.958
2006 11 198 1900 2.282 4.333 3.107 3.247 77.7 81.9 7.02 7.36 108 109.7 2.903 2.962
2006 11 198 2000 1.703 3.208 3.359 3.513 77.2 81.2 7.78 8.15 99.5 101.7 2.903 2.963
2006 11 198 2100 1.487 2.803 3.298 3.45 77.4 81.5 7.17 7.53 100.8 103.7 2.907 2.965
2006 11 198 2200 1.022 1.886 3.239 3.386 78.1 82.1 7.05 7.38 103.6 106.7 2.91 2.965
2006 11 198 2300 0.661 1.204 3.397 3.557 77.5 81.4 7.76 8.13 108.8 111.1 2.91 2.967
2006 11 199 0 0.314 0.58 3.454 3.618 77.5 81.4 7.24 7.6 108.6 112.5 2.911 2.969
2006 11 199 100 0.167 0.307 3.544 3.707 77.4 81.3 7.77 8.15 105.8 108.4 2.915 2.972
2006 11 199 200 0.073 0.136 3.204 3.36 81.3 85.4 7.71 8.09 105 107.3 2.916 2.974
2006 11 199 300 0.041 0.077 3.123 3.271 82.8 86.9 7.53 7.88 109.5 111.9 2.915 2.973
2006 11 199 400 0.031 0.059 3.183 3.331 82.8 87 8.27 8.67 106.7 109.8 2.917 2.977
2006 11 199 500 0.076 0.13 3.188 3.332 82.3 86.5 8.93 9.32 105.7 109 2.92 2.98
2006 11 199 600 0.258 0.418 3.286 3.433 80.2 84.3 8.87 9.27 107.3 109.9 2.917 2.981
2006 11 199 700 0.328 0.55 3.07 3.204 80 84.2 9.4 9.81 106.6 110.8 2.921 2.982
2006 11 199 800 0.512 0.86 3.046 3.172 79.1 83.3 10.31 10.75 107.4 111.8 2.924 2.986
2006 11 199 900 1.103 1.842 2.947 3.074 79.3 83.5 9.37 9.79 108 110.9 2.925 2.985
2006 11 199 1000 0.946 1.667 2.811 2.93 79.9 84.1 9.34 9.76 104.8 108.2 2.929 2.987
2006 11 199 1100 2.044 3.422 2.81 2.926 79.8 84.1 9.06 9.49 108.6 113 2.931 2.986
2006 11 199 1200 2.538 4.267 2.776 2.879 79.7 84.1 7.93 8.31 110.9 115.2 2.938 2.989
2006 11 199 1300 2.384 4.186 2.944 3.07 78.1 82.5 8.34 8.78 117.2 120.5 2.938 2.992
2006 11 199 1400 2.952 5.242 3.11 3.238 77 81.5 9.34 9.8 124.8 127.9 2.94 3.002
2006 11 199 1500 3.221 5.843 3.048 3.166 84 88.9 9.98 10.43 128.6 133.1 2.946 3.007
2006 11 199 1600 2.569 4.702 3.2 3.334 87.5 92.3 9.24 9.66 125.7 129 2.951 3.01
2006 11 199 1700 2.645 4.928 3.268 3.403 88.7 93.5 10.05 10.5 120.3 124.6 2.953 3.014
2006 11 199 1800 3.285 6.185 2.995 3.114 90 95.1 10.36 10.78 128.1 132.2 2.962 3.02
2006 11 199 1900 2.286 4.312 2.564 2.664 94.8 100 9.73 10.15 132.1 134.7 2.969 3.029
2006 11 199 2000 1.211 2.334 2.593 2.692 95 99.9 8.98 9.35 132.1 134.5 2.974 3.028
2006 11 199 2100 1.052 1.972 2.513 2.613 94.4 99.2 9.05 9.45 133.5 137.2 2.979 3.031
2006 11 199 2200 0.453 0.907 1.871 1.934 97.2 102 6.864 7.15 137.8 140.6 2.986 3.036
2006 11 199 2300 0.257 0.52 1.3 1.343 101 105.9 5.923 6.185 138.4 142.1 2.993 3.042
2006 11 200 0 0.272 0.515 1.098 1.137 102.7 107.8 5.955 6.205 139.5 143.1 3.003 3.047
2006 11 200 100 0.178 0.333 0.996 1.035 103.1 108.1 5.932 6.21 125.1 128.8 3.004 3.051
2006 11 200 200 0.047 0.096 1.118 1.161 103.6 108.5 5.937 6.22 130.6 133.8 3.025 3.052
2006 11 200 300 0.016 0.035 1.229 1.285 103.7 108.7 5.12 5.372 133.8 137.9 3.022 3.069
2006 11 200 400 0.016 0.032 1.183 1.236 103.9 108.9 4.99 5.254 129.5 132.7 2.028 3.071
2006 11 200 500 0.024 0.051 1.194 1.242 103.9 108.8 5.007 5.274 118.2 121.1 3.041 2.175
2006 11 200 600 0.055 0.121 1.377 1.438 101.7 106.7 5.356 5.62 110.2 112.9 2.019 2.61
2006 11 200 700 0.168 0.343 1.722 1.808 99.4 104.3 5.488 5.77 101.6 105 3.019 3.054
2006 11 200 800 0.592 1.082 2.064 2.159 95.9 100.9 5.8 6.09 96.6 98.5 2.999 3.056
2006 11 200 900 1.329 2.144 2.567 2.674 90.6 95.4 6.476 6.818 89.8 92.6 2.991 3.057
2006 11 200 1000 1.919 3.01 3.146 3.265 87 91.4 8.12 8.5 91.7 93.4 2.988 3.057
2006 11 200 1100 2.46 3.914 3.418 3.554 84.9 89.2 9.65 10.08 92.5 93.2 2.986 3.065
2006 11 200 1200 2.929 4.757 3.75 3.904 82 86.3 10.06 10.5 95.4 97.3 2.992 3.069
2006 11 200 1300 3.273 5.516 3.885 4.028 81 85.4 9.98 10.42 99.1 102.1 2.994 3.072
2006 11 200 1400 3.491 6.089 3.796 3.925 80.1 84.5 10.32 10.74 103.3 106.8 3.001 3.077
2006 11 200 1500 3.545 6.385 4.019 4.16 78.3 82.8 10.77 11.21 105.6 109.2 3.006 3.083
2006 11 200 1600 3.452 6.369 4.247 4.4 77.8 82.2 11.25 11.7 103.6 104.6 3.007 3.087
2006 11 200 1700 3.106 5.887 4.418 4.587 77.9 82.3 11.32 11.78 106.6 108.8 3.012 3.093
2006 11 200 1800 3.196 6.152 4.413 4.586 77.9 82.3 11.01 11.47 105.1 109 3.023 3.098
2006 11 200 1900 2.633 5.149 4.507 4.689 77.8 82.2 11.22 11.68 108.3 111.3 3.025 3.105
2006 11 200 2000 1.875 3.666 4.323 4.503 79.3 83.8 11.1 11.61 116.4 119.9 3.038 3.108
2006 11 200 2100 1.378 2.589 3.831 3.994 82.6 87 9.54 10.01 120.5 124 3.04 3.116
2006 11 200 2200 1.062 2.029 3.753 3.914 83.5 87.9 8.76 9.18 114.8 118.9 3.043 3.119
2006 11 200 2300 0.714 1.307 3.929 4.101 83.9 88.2 9.06 9.51 113 117.3 3.044 3.117
2006 11 201 0 0.319 0.593 3.36 3.491 93.3 98.2 10.06 10.53 119.7 123.7 3.053 3.133
2006 11 201 100 0.133 0.257 3.019 3.141 95.1 100.1 8.93 9.36 115.7 119.3 3.059 3.151
2006 11 201 200 0.041 0.084 2.748 2.861 97.7 102.7 8.47 8.88 118 122.1 3.064 3.138
2006 11 201 300 0.016 0.029 3.179 3.307 97.5 102.5 10.53 11 122.8 125.7 2.56 3.14
2006 11 201 400 0.013 0.023 3.291 3.417 97.5 102.6 10.93 11.41 126.6 130.6 2.578 2.619
2006 11 201 500 0.022 0.045 3.313 3.297 97.3 102.8 11.66 12.14 131.6 134.3 3.092 3.146
2006 11 201 600 0.038 0.081 3.184 3.265 96.5 102 11.65 12.12 132 134.8 1.55 3.152
2006 11 201 700 0.156 0.301 2.948 3.068 98.7 103.9 10.95 11.42 127.2 130.6 1.038 3.156
2006 11 201 800 0.374 0.715 3.046 3.174 98.1 104.3 11.11 11.59 128.9 131.3 0.073 3.158
2006 11 201 900 0.606 1.169 3.039 3.081 97.8 104.5 11.72 12.22 128.9 132.6 2.597 3.162
2006 11 201 1000 0.912 1.667 3.579 3.641 91.4 98.8 12.55 13.07 130.4 134.3 3.1 3.16
2006 11 201 1100 1.606 2.566 3.57 3.701 90 95.2 14.21 14.77 138.9 141.6 3.112 3.16
2006 11 201 1200 2.708 4.482 3.409 3.526 89.5 94.4 12.8 13.32 138.7 142.2 3.112 3.161
2006 11 201 1300 1.611 2.968 3.164 3.275 90.5 95.4 12.9 13.39 144 147.4 3.122 3.166
2006 11 201 1400 1.719 3.257 2.665 2.752 92.5 97.5 11.85 12.27 144.5 147.5 3.126 3.179
2006 11 201 1500 1.362 2.683 2.029 2.085 96.5 101.7 10.16 10.27 149.4 153.1 0 3.186
2006 11 201 1600 2.345 4.44 1.876 1.934 95.6 101 8.32 8.63 143.8 146.8 0 3.182
2006 11 201 1700 2.796 5.112 1.914 1.972 91.9 97.3 7.26 7.56 140.4 143.9 0 3.186
2006 11 201 1800 2.306 4.223 1.789 1.841 93.2 98.4 6.822 7.11 138.8 142.5 0 3.191
2006 11 201 1900 2.338 4.246 1.899 1.967 93.4 98.5 6.777 7.06 132 136.1 0 3.193
2006 11 201 2000 1.522 2.722 1.892 1.958 95.1 100.1 7.23 7.54 133.5 137.1 0 3.202
2006 11 201 2100 1.031 1.832 1.903 1.972 95.1 100 6.82 7.11 132.3 136.3 0 3.202
2006 11 201 2200 0.856 1.513 1.724 1.794 96 100.8 6.237 6.533 122.9 126.8 0 3.21
2006 11 201 2300 0.467 0.822 1.822 1.895 95.9 100.7 6.745 7.06 120.1 123.5 0 3.213
2006 11 202 0 0.233 0.405 1.813 1.881 96.4 101.1 6.846 7.15 117.1 120.8 0 3.218
2006 11 202 100 0.126 0.221 1.972 2.048 95.9 100.6 7 7.3 114.9 118.2 0 3.212
2006 11 202 200 0.038 0.074 1.941 2.017 95.8 100.5 6.588 6.899 111 113.9 0 3.212
2006 11 202 300 0.024 0.047 2.015 2.099 94.9 99.5 7.22 7.54 111.2 114 0 3.216
2006 11 202 400 0.027 0.042 2.019 2.115 94.2 98.8 6.231 6.539 113.1 116.4 0 3.214
2006 11 202 500 0.065 0.085 2.251 2.347 92.4 96.9 6.283 6.581 114 118.2 0 3.213
2006 11 202 600 0.143 0.2 2.387 2.493 90.1 94.6 6.335 6.643 111.3 114.6 1.064 3.211
2006 11 202 700 0.217 0.356 2.703 2.811 87.9 92.2 7.91 8.23 106.7 109.5 3.148 3.213
2006 11 202 800 0.457 0.712 2.928 3.045 86.8 91.1 8.48 8.83 101.8 103.9 3.133 3.213
2006 11 202 900 0.792 1.246 3.126 3.247 85.3 89.7 9.45 9.82 98.1 101.1 3.137 3.216
2006 11 202 1000 1.13 1.826 3.302 3.418 84 88.4 10.47 10.87 104.4 108 3.138 3.222
2006 11 202 1100 1.346 2.205 3.155 3.265 84.2 88.7 10.6 11.01 109.9 112.3 3.141 3.221
2006 11 202 1200 2.555 3.974 3.379 3.497 82.6 87.1 10.7 11.14 114.1 117.6 3.15 3.222
2006 11 202 1300 2.491 3.89 3.312 3.416 84 88.6 9.54 9.91 109.8 113.2 3.154 3.227
2006 11 202 1400 3.367 5.264 3.495 3.6 82.7 87.4 9.21 9.57 112.8 115.9 3.158 3.231
2006 11 202 1500 2.682 4.235 3.557 3.682 84 88.6 9.37 9.76 113.5 117.1 3.166 3.237
2006 11 202 1600 3.653 5.795 3.667 3.784 83.7 88.4 8.44 8.77 109.4 112.8 3.168 3.246
2006 11 202 1700 3.51 5.689 3.867 3.99 83.6 88.4 9.4 9.74 111 113.9 3.168 3.244
2006 11 202 1800 3.359 5.517 3.683 3.804 84.7 89.6 9.11 9.44 110.1 112.8 3.177 3.252
2006 11 202 1900 2.118 3.501 3.443 3.559 86.4 91.1 8.37 8.69 110.8 113 3.187 3.251
2006 11 202 2000 2.213 3.805 3.386 3.53 85.6 90.3 8.73 9.08 114.8 118.2 3.192 3.259
2006 11 202 2100 1.28 2.205 3.48 3.61 85.2 89.8 8.28 8.59 108.9 111.9 3.193 3.261
2006 11 202 2200 1.214 1.92 3.674 3.799 84.3 88.9 8.73 9.03 106.9 110.1 3.186 3.262
2006 11 202 2300 0.986 1.637 3.422 3.548 84.1 88.8 9.15 9.49 113.7 115.9 3.197 3.269
2006 11 203 0 0.728 1.209 3.278 3.413 84.1 88.6 8.52 8.88 115.6 120 3.201 3.269
2006 11 203 100 0.193 0.324 3.222 3.353 86.1 90.5 8.21 8.57 120.5 124.1 3.202 3.269
2006 11 203 200 0.129 0.176 3.067 3.188 87.9 92.2 8.16 8.53 119 122.2 3.204 3.27
2006 11 203 300 0.043 0.06 3.02 3.14 89.3 93.7 8.51 8.85 114 116.4 3.202 3.271
2006 11 203 400 0.021 0.026 3.006 3.128 89.9 94.3 7.75 8.07 111.8 115.9 3.203 3.273
2006 11 203 500 0.029 0.044 2.9 3.019 89.5 93.9 6.965 7.25 108.5 110.9 3.207 3.277
2006 11 203 600 0.062 0.092 2.837 2.949 89.8 94.2 6.586 6.858 106 108.4 3.205 3.275
2006 11 203 700 0.24 0.331 2.945 3.065 89.3 93.7 6.637 6.915 111.3 114.6 3.203 3.275
2006 11 203 800 0.228 0.34 2.77 2.883 90.9 95.5 6.771 7.07 112.9 116 3.211 3.279
2006 11 203 900 0.283 0.421 3.007 3.127 88.7 93.3 7.86 8.2 117.4 120.4 3.212 3.278
2006 11 203 1000 0.532 0.76 2.962 3.079 88.8 93.2 7.54 7.88 121 125.4 3.216 3.279
2006 11 203 1100 0.75 1.053 2.853 2.971 90.1 94.7 7.31 7.64 124.1 128.1 3.22 3.282
2006 11 203 1200 0.819 1.172 2.499 2.59 97.8 102.8 8.14 8.45 132.2 135.5 3.229 3.288
2006 11 203 1300 0.911 1.318 2.37 2.456 99.8 104.8 8.25 8.55 127.9 130.5 3.228 3.294
2006 11 203 1400 1.294 1.795 2.228 2.32 99.6 104.6 7.47 7.77 127.5 130.3 3.232 3.292
2006 11 203 1500 1.214 1.699 2.181 2.273 100.5 105.5 7.11 7.39 126.9 129.6 3.237 3.295
2006 11 203 1600 1.315 1.826 2.063 2.153 101.6 106.7 6.626 6.898 127.8 131.9 3.241 3.303
2006 11 203 1700 1.046 1.486 2.011 2.092 102.2 107.2 6.846 7.12 128.5 131.6 3.246 3.302
2006 11 203 1800 0.588 0.869 2.029 2.106 102.7 107.7 7.11 7.41 121.4 125 3.243 3.307
2006 11 203 1900 0.579 0.857 2.017 2.096 102.3 107.4 6.287 6.561 120.1 123.6 3.246 3.302
2006 11 203 2000 0.623 0.885 2.146 2.236 101.8 106.9 6.386 6.654 116.5 119.2 3.247 3.303
2006 11 203 2100 0.287 0.424 2.244 2.341 101.7 106.7 6.278 6.535 112.2 116.4 3.252 3.304
2006 11 203 2200 0.327 0.465 2.158 2.249 102.1 107.1 5.999 6.249 110.9 115.2 3.247 3.306
2006 11 203 2300 0.186 0.265 2.171 2.262 102.4 107.3 5.692 5.941 113.6 118 3.252 3.309
2006 11 204 0 0.195 0.262 2.174 2.257 102.7 107.6 6.222 6.474 111.2 114.5 3.254 3.312
2006 11 204 100 0.066 0.091 2.036 2.122 103.1 108 5.5 5.741 103.7 106.3 3.257 3.317
2006 11 204 200 0.028 0.04 2.134 2.22 103.1 108 5.712 5.962 105.7 108.3 3.255 3.319
2006 11 204 300 0.014 0.02 2.179 2.27 101.8 106.8 5.369 5.602 108.1 110.9 3.257 3.324
2006 11 204 400 0.014 0.018 2.26 2.358 100.8 105.8 5.424 5.691 107.3 110.1 3.258 3.322
2006 11 204 500 0.025 0.034 2.367 2.473 99.9 104.9 5.37 5.621 105.2 108.5 3.261 3.326
2006 11 204 600 0.095 0.117 2.965 3.092 97.6 102.7 7.07 7.35 99.9 101.9 3.253 3.325
2006 11 204 700 0.178 0.219 2.946 3.086 96.4 101.3 6.208 6.484 106.4 108.4 3.253 3.321
2006 11 204 800 0.416 0.511 3.242 3.385 94.8 99.5 7.21 7.51 103.7 106 3.255 3.322
2006 11 204 900 0.825 0.982 3.197 3.334 92.4 96.9 6.932 7.22 106.1 108.2 3.259 3.325
2006 11 204 1000 0.966 1.19 3.335 3.472 90.3 94.8 7.33 7.62 105.9 107.5 3.262 3.332
2006 11 204 1100 1.324 1.621 3.496 3.629 87.4 91.9 8.16 8.46 102.1 105 3.261 3.33
2006 11 204 1200 1.507 1.853 3.472 3.594 85.8 90.3 8.29 8.57 100.7 101.9 3.259 3.335
2006 11 204 1300 2.996 3.493 3.511 3.623 83.5 88 7.79 8.07 99.9 102.6 3.259 3.337
2006 11 204 1400 3.232 3.834 3.517 3.629 83.2 87.6 7.63 7.91 88.7 90.1 3.267 3.341
2006 11 204 1500 2.993 3.622 3.458 3.563 83.3 87.8 8.05 8.36 85.6 86.1 3.273 3.346
2006 11 204 1600 3.126 3.783 3.647 3.768 82.7 87.2 7.83 8.11 94 95.4 3.275 3.349
2006 11 204 1700 2.988 3.712 3.606 3.73 83.2 87.7 6.68 6.938 102.4 104.8 3.281 3.349
2006 11 204 1800 2.606 3.354 3.355 3.49 84.1 88.6 5.71 5.961 103.3 106.1 3.293 3.355
2006 11 204 1900 2.152 2.895 3.308 3.442 84.2 88.8 4.969 5.194 113.9 117.7 3.294 3.357
2006 11 204 2000 1.753 2.415 3.226 3.375 85.1 89.5 5.292 5.555 105.7 108.4 3.297 3.358
2006 11 204 2100 1.723 2.61 3.409 3.565 84.4 89 6.194 6.486 111.4 114.4 3.3 3.363
2006 11 204 2200 1.086 1.717 3.363 3.522 85.7 90.3 7.69 8.04 109.5 112.2 3.302 3.37
2006 11 204 2300 0.786 1.278 3.28 3.429 85.9 90.4 5.859 6.127 105.5 108 3.311 3.368
2006 11 205 0 0.429 0.704 3.661 3.823 84.1 88.5 6.729 7 110.3 112.9 3.312 3.369
2006 11 205 100 0.167 0.282 3.722 3.861 83 87.3 8.62 8.94 107.7 110.6 3.304 3.375
2006 11 205 200 0.051 0.076 3.465 3.607 84.2 88.4 8.3 8.62 103.4 106.3 3.306 3.377
2006 11 205 300 0.028 0.041 3.181 3.307 85.3 89.6 7.72 8.02 109 112.3 3.309 3.377
2006 11 205 400 0.026 0.037 2.795 2.917 86.6 90.9 7.81 8.13 111.8 114.3 3.313 3.383
2006 11 205 500 0.068 0.061 2.329 2.435 87.3 91.7 6.929 7.19 107.8 110.8 3.317 3.382
2006 11 205 600 0.22 0.189 2.134 2.216 88 92.6 6.548 6.776 107.2 110.6 3.317 3.383
2006 11 205 700 0.351 0.365 2.206 2.284 88.6 93.1 8.27 8.57 122.6 125.3 3.32 3.387
2006 11 205 800 0.741 0.746 1.982 2.061 88 92.5 9.16 9.49 130.2 132.8 3.322 3.389
2006 11 205 900 1.294 1.444 2.207 2.295 88.1 92.7 9.31 9.63 126.7 129.6 3.32 3.39
2006 11 205 1000 1.01 1.378 2.23 2.317 92.6 97.3 9.55 9.88 132.1 134.7 3.322 3.388
2006 11 205 1100 0.705 1.038 1.942 2.01 95.2 100 8.73 9.03 132 135.7 3.323 3.39
2006 11 205 1200 0.81 1.221 1.754 1.813 96.9 101.8 7.51 7.76 140.7 143.2 3.323 3.391
2006 11 205 1300 0.685 1.064 1.569 1.618 97.4 102.3 7.01 7.24 136.6 140.6 3.325 3.394
2006 11 205 1400 1.143 1.721 1.371 1.412 99.1 104.2 6.362 6.589 136.8 139.8 3.328 3.394
2006 11 205 1500 1.192 1.823 1.221 1.266 100.4 105.4 5.793 6.015 128.3 131.4 3.333 3.395
2006 11 205 1600 1.683 2.509 1.531 1.595 97.2 102.3 4.805 5.004 125.2 128.6 3.332 3.394
2006 11 205 1700 2.294 3.313 1.571 1.656 94.1 99 4.277 4.484 117.2 120.6 3.331 3.396
2006 11 205 1800 2.436 3.566 1.73 1.833 92.8 97.7 3.574 3.787 122.4 125.8 3.337 3.4
2006 11 205 1900 2.511 3.977 1.847 1.977 91.4 96.4 3.405 3.628 115.7 119.7 3.338 3.399
2006 11 205 2000 2.357 3.971 1.879 1.986 91.5 96.6 3.535 3.753 109 111.5 3.339 3.399
2006 11 205 2100 1.875 3.284 1.913 2.013 92.1 97.2 3.499 3.728 100.3 103.1 3.338 3.4
2006 11 205 2200 1.077 1.953 1.839 1.956 93.3 98.3 3.122 3.358 97.7 99.8 3.34 3.4
2006 11 205 2300 0.603 0.912 1.7 1.847 95.2 99.7 2.636 2.869 97.4 100.1 3.342 3.401
2006 11 206 0 0.328 0.511 1.366 1.625 95.9 99.9 2.354 2.619 78.7 80.6 3.346 3.403
2006 11 206 100 0.199 0.39 0.758 0.996 96.3 100.5 2.465 2.761 63.69 64.79 3.351 3.407
2006 11 206 200 0.09 0.135 0.276 0.426 97.7 102.1 2.949 3.228 59.06 59.06 3.353 3.411
2006 11 206 300 0.04 0.059 -0.001 0.138 97.7 102.2 2.544 2.799 53.11 48.62 3.354 3.413
2006 11 206 400 0.026 0.038 -0.248 -0.184 98 102.7 1.739 1.851 124 108.3 3.356 3.414
2006 11 206 500 0.062 0.071 0.051 0.174 96.2 100.9 2.416 2.626 105.5 107.6 3.353 3.412
2006 11 206 600 0.159 0.178 -0.309 -0.166 96 100.7 1.778 1.946 128 129.9 3.357 3.416
2006 11 206 700 0.473 0.474 0.242 0.348 93.7 98.4 3.36 3.627 64.88 59.91 3.354 3.414
2006 11 206 800 0.82 0.907 0.06 0.148 91.7 96.2 3.458 3.689 79.7 80.4 3.354 3.417
2006 11 206 900 1.413 1.704 0.838 0.893 87.9 92.4 2.902 3.064 84.3 85.3 3.351 3.413
2006 11 206 1000 1.916 2.431 1.586 1.658 87.3 91.5 4.051 4.289 93.1 95.3 3.346 3.41
2006 11 206 1100 2.394 3.187 2.221 2.288 84.4 88.7 5.012 5.236 90.3 92.2 3.343 3.41
2006 11 206 1200 2.812 3.894 2.363 2.428 83.8 88.1 5.188 5.428 92 94.2 3.344 3.41
2006 11 206 1300 3.146 4.499 2.475 2.548 84.2 88.5 4.958 5.2 90.1 92.6 3.344 3.412
2006 11 206 1400 3.373 4.963 2.524 2.608 84.5 89 4.62 4.863 83.8 85 3.349 3.411
2006 11 206 1500 3.469 5.244 2.587 2.678 84.4 89 4.608 4.858 88.7 90.6 3.35 3.411
2006 11 206 1600 3.44 5.388 2.777 2.888 83.2 87.9 5.105 5.382 86 88.8 3.351 3.413
2006 11 206 1700 3.282 5.333 2.738 2.889 83.2 87.7 4.509 4.801 87.4 89.9 3.362 3.418
2006 11 206 1800 3.004 5.097 3.066 3.199 81 85.8 3.436 3.621 101.1 101.6 3.365 3.418
2006 11 206 1900 2.623 4.721 3.089 3.196 80.6 85.7 2.52 2.655 123.4 125.8 3.364 3.427
2006 11 206 2000 2.182 4.131 3.855 4.022 78.5 83.2 5.011 5.264 114.7 118.7 3.356 3.421
2006 11 206 2100 1.703 3.426 3.054 3.147 82.7 87.8 3.083 3.199 136.6 139.7 3.365 3.426
2006 11 206 2200 1.284 2.657 3.075 3.19 83 88 3.889 4.09 114.5 118 3.376 3.428
2006 11 206 2300 0.784 1.608 2.979 3.14 85 89.5 6.075 6.395 106.4 109.7 3.376 3.433
2006 11 207 0 0.458 0.994 2.943 3.099 85.9 90.4 5.677 5.974 104.7 107.1 3.372 3.434
2006 11 207 100 0.191 0.433 3.134 3.281 84.6 88.9 6.721 7.02 104.9 108.1 3.371 3.436
2006 11 207 200 0.075 0.117 2.826 2.966 86.2 90.3 6.87 7.18 106.1 108.3 3.372 3.438
2006 11 207 300 0.028 0.048 2.648 2.799 86.9 91 7.12 7.44 106.5 109.3 3.373 3.441
2006 11 207 400 0.02 0.03 2.383 2.517 87.5 91.7 7.11 7.43 105.5 107.9 3.375 3.442
2006 11 207 500 0.033 0.047 2.357 2.471 86.5 90.8 7.73 8.04 100.7 103.8 3.376 3.446
2006 11 207 600 0.073 0.109 2.31 2.434 85.5 89.7 7.58 7.89 98.8 101.4 3.372 3.444
2006 11 207 700 0.27 0.327 2.459 2.58 83.1 87.3 7.83 8.16 95.6 97.2 3.369 3.445
2006 11 207 800 1.139 1.41 2.69 2.801 81.3 85.6 8.38 8.72 93 95.1 3.37 3.445
2006 11 207 900 1.417 1.896 2.849 2.948 81.3 85.6 8.22 8.53 96.7 99.5 3.371 3.444
2006 11 207 1000 1.877 2.634 2.953 3.053 81.5 85.8 8.55 8.86 97.5 100.1 3.368 3.445
2006 11 207 1100 2.487 3.59 3.111 3.206 80 84.3 8.01 8.3 101.4 104.1 3.371 3.446
2006 11 207 1200 2.531 3.788 3.237 3.342 79.2 83.5 8.21 8.53 99.6 102.4 3.373 3.447
2006 11 207 1300 3.194 4.826 3.479 3.6 78.3 82.4 6.761 7.06 97.5 99.7 3.372 3.441
2006 11 207 1400 3.426 5.308 3.326 3.434 80 84.3 6.532 6.834 97 99.5 3.375 3.446
2006 11 207 1500 3.484 5.51 3.186 3.291 81.8 86.4 6.566 6.87 92.3 94.2 3.381 3.45
2006 11 207 1600 3.478 5.677 3.187 3.308 82.2 86.9 5.6 5.896 90.5 92.1 3.389 3.454
2006 11 207 1700 3.271 5.516 3.333 3.455 82.1 86.8 5.111 5.385 98.8 99.4 3.393 3.454
2006 11 207 1800 2.885 5.046 3.315 3.454 82.7 87.4 5.09 5.375 98.9 100.9 3.397 3.459
2006 11 207 1900 2.586 4.689 3.321 3.505 82.8 87.3 5.345 5.665 94.8 97.1 3.405 3.46
2006 11 207 2000 2.138 4.091 3.657 3.842 81.4 85.9 5.201 5.531 87.9 89.3 3.404 3.461
2006 11 207 2100 1.669 3.32 3.905 4.105 81.1 85.5 6.268 6.621 85.3 87.6 3.405 3.464
2006 11 207 2200 1.215 2.462 3.875 4.05 82.1 86.7 6.801 7.13 85.9 88.7 3.405 3.468
2006 11 207 2300 0.811 1.608 3.857 4.04 83 87.4 7.02 7.38 87.3 89 3.409 3.466
2006 11 208 0 0.338 0.613 3.633 3.8 84.5 88.7 5.885 6.196 97.5 100.2 3.406 3.467
2006 11 208 100 0.127 0.222 3.332 3.501 85.9 90 6.078 6.397 99.2 102.7 3.407 3.469
2006 11 208 200 0.052 0.081 2.992 3.178 87.2 91.1 5.605 5.921 97 98 3.41 3.471
2006 11 208 300 0.041 0.059 3.08 3.232 86.4 90.5 6.476 6.801 91.9 93.9 3.409 3.473
2006 11 208 400 0.029 0.042 2.942 3.073 87.2 91.5 7.13 7.46 89.3 91.6 3.412 3.474
2006 11 208 500 0.032 0.045 2.909 3.033 86.5 90.7 7.65 7.98 92.9 95.4 3.412 3.477
2006 11 208 600 0.072 0.11 2.552 2.66 87.8 92.1 6.689 6.972 100.4 102.5 3.413 3.477
2006 11 208 700 0.227 0.33 2.537 2.633 87.2 91.6 7.75 8.04 105.4 108.7 3.416 3.479
2006 11 208 800 1.225 1.496 2.701 2.788 83.1 87.5 8.93 9.25 106.7 110.5 3.415 3.484
2006 11 208 900 0.693 0.901 2.488 2.568 83.8 88.2 8.14 8.44 112.5 115.6 3.416 3.483
2006 11 208 1000 0.622 0.939 2.415 2.492 85.2 89.6 8.04 8.34 115.4 118.5 3.42 3.482
2006 11 208 1100 2.136 3.082 2.452 2.528 85 89.5 8.37 8.67 111.2 114.9 3.42 3.485
2006 11 208 1200 2.968 4.546 2.411 2.481 84.9 89.5 8.2 8.49 109.3 113.2 3.425 3.487
2006 11 208 1300 3.57 5.513 2.604 2.662 84.8 89.4 8.4 8.69 109.9 112.9 3.428 3.492
2006 11 208 1400 2.498 3.933 2.345 2.409 88 92.7 6.573 6.853 115.6 118.2 3.431 3.496
2006 11 208 1500 2.351 3.808 2.239 2.32 89.2 94 5.595 5.849 116.1 119.9 3.438 3.498
2006 11 208 1600 2.24 3.625 2.013 2.089 91.1 95.8 5.651 5.912 114.7 119.4 3.438 3.503
2006 11 208 1700 1.822 2.976 1.938 2.008 91.7 96.4 5.213 5.452 114.6 118.3 3.446 3.502
2006 11 208 1800 1.618 2.862 1.923 1.995 92.3 97 4.92 5.145 112.6 115.1 3.449 3.502
2006 11 208 1900 1.478 2.654 1.88 1.956 93.1 97.8 4.481 4.702 112 116.3 3.45 3.505
2006 11 208 2000 1.073 1.961 1.523 1.586 96.5 101.4 4.619 4.841 112.6 115.8 3.454 3.515
2006 11 208 2100 1.441 2.642 1.445 1.505 97 102.1 4.424 4.643 106 108.7 3.459 3.522
2006 11 208 2200 0.974 1.821 1.529 1.585 97.6 102.6 5.262 5.496 103.4 105.9 3.462 3.522
2006 11 208 2300 0.675 1.213 1.752 1.825 96.1 101 5.142 5.386 103.4 106.9 3.464 3.522
2006 11 209 0 0.497 0.882 1.834 1.905 95 99.8 5.818 6.065 109.7 112.8 3.468 3.521
2006 11 209 100 0.208 0.391 2.051 2.126 94.2 98.9 7.12 7.42 118.5 121.8 3.466 3.523
2006 11 209 200 0.089 0.147 1.886 1.956 95.2 99.8 6.87 7.16 120 123.4 3.471 3.525
2006 11 209 300 0.019 0.031 1.874 1.945 95.1 99.7 6.117 6.386 116.4 120 3.468 3.523
2006 11 209 400 0.014 0.022 1.845 1.918 95.5 100.2 6.045 6.325 122.5 126.2 3.468 3.524
2006 11 209 500 0.026 0.043 1.743 1.818 95.9 100.4 5.531 5.803 122.5 126.4 3.47 3.524
2006 11 209 600 0.095 0.114 1.631 1.709 95.7 100.4 5.12 5.375 111.7 116 3.469 3.525
2006 11 209 700 0.105 0.188 1.784 1.87 94.7 99.2 4.702 4.945 104.5 108 3.47 3.525
2006 11 209 800 0.227 0.376 1.739 1.825 94.4 98.9 4.836 5.081 110.6 114.5 3.468 3.526
2006 11 209 900 1.285 1.773 2.054 2.145 91.2 95.7 4.534 4.776 106.3 109.9 3.469 3.526
2006 11 209 1000 1.207 1.944 2.009 2.112 91.8 96.4 3.836 4.07 119.9 122.7 3.47 3.528
2006 11 209 1100 2.648 4.174 2.708 2.801 86.9 91.6 4.04 4.193 130.8 134.6 3.467 3.528
2006 11 209 1200 2.112 3.466 1.967 2.048 91.4 96 4.368 4.603 113.4 117 3.471 3.537
2006 11 209 1300 2.927 4.837 1.921 1.976 92 96.6 4.321 4.543 105.7 108.5 3.477 3.539
2006 11 209 1400 2.763 4.72 1.804 1.853 94.1 99 4.119 4.335 108.7 112.7 3.486 3.544
2006 11 209 1500 2.426 4.235 1.407 1.45 97.2 102.4 3.68 3.88 104.6 107.3 3.485 3.548
2006 11 209 1600 2.47 4.307 1.223 1.27 98.7 103.9 3.692 3.88 103.9 107.2 3.489 3.55
2006 11 209 1700 2.119 3.716 1.192 1.232 99 104.2 3.483 3.673 105.3 109.2 3.502 3.553
2006 11 209 1800 2.357 4.104 1.315 1.352 97.5 102.8 3.614 3.819 106.1 108.9 3.497 3.555
2006 11 209 1900 2.088 3.598 1.45 1.496 97.6 102.9 3.576 3.782 107 110.2 3.493 3.553
2006 11 209 2000 1.689 2.878 1.716 1.785 97.6 102.6 3.784 4.011 101 102.8 3.493 3.555
2006 11 209 2100 1.246 2.22 1.748 1.853 96.7 101.6 3.004 3.244 100.1 102.9 3.494 3.559
2006 11 209 2200 1.012 1.932 1.774 1.921 96 100.8 2.999 3.265 84.5 86.1 3.494 3.562
2006 11 209 2300 0.756 1.627 1.493 1.605 95.6 100.8 2.689 2.933 77.8 79.5 3.496 3.567
2006 11 210 0 0.381 0.899 1.305 1.405 94.5 99.4 2.725 2.952 86.7 87.6 3.498 3.567
2006 11 210 100 0.142 0.358 1.148 1.261 93.1 97.6 3.487 3.772 82.3 83.5 3.499 3.568
2006 11 210 200 0.047 0.082 0.596 0.708 93.3 97.5 3.78 4.046 84 85.9 3.502 3.572
2006 11 210 300 0.022 0.034 0.111 0.218 93.7 98.1 3.463 3.738 95.9 97.7 3.504 3.575
2006 11 210 400 0.018 0.023 -0.134 -0.048 92.3 96.8 3.768 4.028 83.2 85.5 3.505 3.576
2006 11 210 500 0.024 0.038 -0.305 -0.208 90.3 94.6 4.892 5.169 84.5 85.8 3.506 3.578
2006 11 210 600 0.149 0.121 -0.372 -0.304 85 89.2 5.843 6.111 84.9 86.8 3.507 3.58
2006 11 210 700 0.472 0.409 0.123 0.194 79.2 83.3 7 7.29 92.1 94.5 3.503 3.578
2006 11 210 800 0.881 0.944 0.111 0.186 77.7 81.7 6.991 7.28 83.1 85.7 3.505 3.58
2006 11 210 900 1.36 1.702 0.132 0.203 77.7 81.7 7.15 7.42 76.7 78.2 3.505 3.581
2006 11 210 1000 1.861 2.389 1.19 1.256 76.2 80.3 7.48 7.77 79.8 81.8 3.499 3.574
2006 11 210 1100 2.347 3.148 2.195 2.258 74.8 79.1 7.58 7.83 90.2 92.5 3.492 3.57
2006 11 210 1200 2.778 3.838 2.585 2.643 75 79.2 6.55 6.77 97 98.8 3.489 3.566
2006 11 210 1300 3.107 4.438 2.948 3.021 74.8 79.1 7.39 7.65 88.1 89.7 3.489 3.565
2006 11 210 1400 3.332 4.914 3.094 3.162 74.4 78.9 8.13 8.4 85.2 87.8 3.486 3.565
2006 11 210 1500 3.431 5.199 3.126 3.196 74.2 78.8 8.75 9.03 90.2 93.6 3.487 3.565
2006 11 210 1600 3.405 5.327 2.785 2.859 77.3 82 7.7 7.97 82.8 84.1 3.493 3.564
2006 11 210 1700 3.24 5.282 2.677 2.759 78.7 83.5 6.776 7.05 82.3 84 3.495 3.565
2006 11 210 1800 2.955 5.132 2.689 2.775 79.4 84.2 6.377 6.637 81.6 82.7 3.499 3.566
2006 11 210 1900 2.577 4.799 2.676 2.773 80.4 85.2 6.542 6.806 80.3 81.4 3.506 3.566
2006 11 210 2000 2.126 4.031 2.577 2.673 81.6 86.4 6.288 6.547 79.2 81.2 3.509 3.57
2006 11 210 2100 1.65 3.228 2.616 2.715 81.9 86.7 6.897 7.16 89.4 90.5 3.511 3.574
2006 11 210 2200 1.18 2.41 2.522 2.617 82.3 87.1 6.512 6.752 98.5 101.5 3.51 3.576
2006 11 210 2300 0.778 1.611 2.309 2.406 82.2 86.9 6.706 6.971 100.2 101.5 3.509 3.579
2006 11 211 0 0.392 0.9 1.979 2.079 83.2 87.8 6.685 6.962 101 103.5 3.511 3.584
2006 11 211 100 0.139 0.348 1.65 1.757 85.8 90.2 5.801 6.059 98.4 101.3 3.514 3.585
2006 11 211 200 0.041 0.074 1.397 1.499 85.6 89.8 6.158 6.424 93.3 95.9 3.516 3.586
2006 11 211 300 0.019 0.029 1.374 1.468 83.4 87.8 7.18 7.46 93.5 95.6 3.512 3.588
2006 11 211 400 0.013 0.02 1.119 1.191 82.8 87.3 8.31 8.58 94.3 96.6 3.514 3.589
2006 11 211 500 0.021 0.033 0.707 0.775 83 87.4 8.39 8.64 97.1 99.3 3.516 3.591
2006 11 211 600 0.135 0.115 0.143 0.207 84.5 89.1 8.42 8.69 104.4 105.9 3.521 3.596
2006 11 211 700 0.456 0.413 -0.138 -0.08 85 89.6 8.82 9.11 104.1 107.7 3.523 3.599
2006 11 211 800 0.869 0.985 -0.218 -0.163 83.6 88.2 9.01 9.3 109.7 113.3 3.525 3.598
2006 11 211 900 1.332 1.778 -0.255 -0.211 82.5 87 9.09 9.36 105.9 108.8 3.525 3.6
2006 11 211 1000 1.83 2.476 -0.038 -0.011 82.2 86.8 9.4 9.67 109.3 113.2 3.524 3.598
2006 11 211 1100 2.316 3.267 0.396 0.411 83.7 88.4 8.21 8.47 111.5 115.5 3.523 3.595
2006 11 211 1200 2.76 4.02 0.935 0.949 85.5 90.1 6.888 7.11 114.5 118.2 3.521 3.59
2006 11 211 1300 3.051 4.592 1.32 1.331 88 92.8 6.99 7.23 114.2 117.9 3.52 3.588
2006 11 211 1400 3.297 5.095 1.508 1.526 90 94.9 6.407 6.652 117.5 120.7 3.519 3.587
2006 11 211 1500 3.394 5.37 1.48 1.505 91.3 96.5 4.868 5.077 118.7 122.5 3.521 3.581
2006 11 211 1600 3.358 5.488 1.511 1.563 91.2 96.5 4.221 4.422 121.8 125.7 3.524 3.581
2006 11 211 1700 3.183 5.398 1.505 1.561 91.6 96.8 4.636 4.856 115.1 117.7 3.523 3.583
2006 11 211 1800 2.895 5.227 1.59 1.654 91.9 97.1 4.897 5.13 111.6 116.2 3.525 3.587
2006 11 211 1900 2.519 4.91 1.449 1.532 92.9 98.2 4.185 4.377 117.3 121.1 3.531 3.586
2006 11 211 2000 2.076 4.097 1.471 1.561 93.9 99.2 4.47 4.7 119.3 122.7 3.54 3.584
2006 11 211 2100 1.592 3.275 1.455 1.55 93.7 99 3.975 4.2 114.6 117.8 3.535 3.585
2006 11 211 2200 1.129 2.434 1.364 1.449 91.3 96.5 3.913 4.149 109.4 113 3.535 3.587
2006 11 211 2300 0.737 1.605 1.507 1.595 88.8 93.7 4.978 5.218 97.1 99.2 3.532 3.586
2006 11 212 0 0.361 0.879 1.206 1.304 88.4 93.1 5.144 5.407 90.6 92.3 3.534 3.589
2006 11 212 100 0.132 0.333 0.89 0.976 88.3 92.8 5.526 5.777 94.1 96.2 3.534 3.591
2006 11 212 200 0.037 0.069 0.357 0.441 87.4 91.7 6.143 6.401 98.7 100.7 3.536 3.596
2006 11 212 300 0.015 0.023 -0.098 -0.017 87.1 91.5 5.602 5.848 99.8 101.1 3.541 3.598
2006 11 212 400 0.011 0.017 -0.485 -0.412 86.2 90.6 5.857 6.101 93.3 95.3 3.542 3.603
2006 11 212 500 0.018 0.028 -0.948 -0.879 85.6 90 6.262 6.521 85.9 88.6 3.548 3.606
2006 11 212 600 0.112 0.106 -1.248 -1.19 82.7 87.2 7.59 7.86 91.5 93.8 3.549 3.611
2006 11 212 700 0.428 0.396 -1.487 -1.44 82.2 86.8 8.15 8.4 96.7 99.4 3.551 3.618
2006 11 212 800 0.831 0.971 -1.303 -1.256 83.1 87.7 8.39 8.66 102.5 104.9 3.554 3.619
2006 11 212 900 1.298 1.779 -1.047 -0.997 83.4 87.9 8.42 8.69 107.1 110.4 3.551 3.617
2006 11 212 1000 1.805 2.522 -0.326 -0.295 83.3 87.9 7.94 8.18 105.7 108.5 3.549 3.611
2006 11 212 1100 2.388 3.517 0.407 0.427 83.1 87.7 8.33 8.58 108.2 111.6 3.544 3.608
2006 11 212 1200 2.803 4.254 1.072 1.094 82.5 87.1 8.23 8.5 107.7 111.4 3.541 3.603
2006 11 212 1300 3.066 4.78 1.469 1.488 82 86.6 7.66 7.9 109.8 113.5 3.538 3.6
2006 11 212 1400 3.279 5.233 2.087 2.119 81.4 86.1 8.3 8.57 108.3 111.3 3.534 3.596
2006 11 212 1500 3.385 5.507 2.372 2.416 81.9 86.8 8.09 8.36 108.6 112.2 3.53 3.595
2006 11 212 1600 3.369 5.658 2.499 2.574 82.6 87.6 7.82 8.13 120.1 123.5 3.54 3.598
2006 11 212 1700 3.237 5.67 2.465 2.548 82.4 87.5 7.47 7.76 128.5 131.1 3.548 3.603
2006 11 212 1800 2.928 5.451 2.417 2.518 82.6 87.6 6.433 6.715 117.2 120.8 3.555 3.606
2006 11 212 1900 2.517 5.077 2.693 2.836 80.7 85.4 5.971 6.247 117.4 120.6 3.552 3.605
2006 11 212 2000 2.071 4.152 3.054 3.182 80.3 85.2 7.43 7.73 116.2 119.3 3.55 3.607
2006 11 212 2100 1.6 3.261 3.228 3.357 81.4 86.3 8.22 8.54 111.7 115.6 3.56 3.609
2006 11 212 2200 1.141 2.385 3.214 3.34 82.4 87.3 8.28 8.59 112.5 115.9 3.555 3.613
2006 11 212 2300 0.741 1.512 3.3 3.426 82.2 87 8.33 8.63 113.3 116.2 3.555 3.613
2006 11 213 0 0.361 0.794 3.22 3.337 83.1 87.9 8.64 8.95 110.9 114.6 3.557 3.618
2006 11 213 100 0.124 0.281 3.138 3.254 83.3 87.9 9.14 9.45 112 115.3 3.56 3.621
2006 11 213 200 0.03 0.052 2.77 2.867 85 89.6 9.03 9.36 115.3 119.2 3.569 3.621
2006 11 213 300 0.013 0.02 2.607 2.706 85.7 90.2 9.27 9.62 117 120.3 3.568 3.623
2006 11 213 400 0.007 0.013 2.53 2.628 86.6 91.2 9 9.34 120.6 124.6 3.566 3.623
2006 11 213 500 0.022 0.033 2.478 2.577 86.1 90.7 8.86 9.19 124.9 128.4 3.565 3.621
2006 11 213 600 0.1 0.12 2.621 2.718 84.5 89.1 9.4 9.73 125.5 128.1 3.565 3.619
2006 11 213 700 0.13 0.17 2.532 2.635 84.3 88.9 9.11 9.46 123.8 127.2 3.569 3.621
2006 11 213 800 0.553 0.657 2.523 2.625 83.2 87.8 9.23 9.58 119.4 123.8 3.568 3.621
2006 11 213 900 0.419 0.618 2.822 2.924 81.6 86.1 10.16 10.54 119 123.3 3.569 3.622
2006 11 213 1000 0.88 1.309 2.915 3.013 81.1 85.7 10.21 10.59 116.3 119.8 3.563 3.625
2006 11 213 1100 1.713 2.468 2.836 2.921 81.3 85.9 10.06 10.43 115.8 119.3 3.561 3.628
2006 11 213 1200 2.694 3.952 3.044 3.132 79.5 84.1 9.96 10.32 115.9 119.1 3.566 3.629
2006 11 213 1300 3.007 4.606 2.987 3.06 80.3 85 9.53 9.86 114.3 118 3.567 3.631
2006 11 213 1400 3.225 5.125 2.929 3 81.1 86 9.64 9.99 116.6 121.5 3.577 3.63
2006 11 213 1500 3.328 5.459 2.854 2.934 81.7 86.7 8.39 8.72 117 120.7 3.581 3.63
2006 11 213 1600 3.289 5.612 2.973 3.07 81.5 86.4 9.03 9.38 117.2 119.9 3.578 3.639
2006 11 213 1700 3.137 5.647 3.062 3.166 81.2 86.1 8.75 9.08 120.2 124 3.588 3.638
2006 11 213 1800 2.978 5.501 2.973 3.082 82.2 87.2 8.39 8.72 119.4 122.9 3.604 3.641
2006 11 213 1900 2.037 3.654 3.238 3.352 82.2 87.1 8.57 8.9 118 121.9 3.602 3.646
2006 11 213 2000 1.738 2.939 3.265 3.38 82.5 87.2 8.46 8.77 114.3 117.3 3.601 3.645
2006 11 213 2100 0.96 1.571 3.234 3.348 84 88.7 8.74 9.06 111.9 114.9 3.6 3.651
2006 11 213 2200 0.621 1.008 3.356 3.468 83.9 88.6 9.19 9.51 111.8 115 3.61 3.651
2006 11 213 2300 0.28 0.454 3.355 3.469 84.4 89 9.59 9.95 114.5 117.1 3.61 3.652
2006 11 214 0 0.097 0.171 2.932 3.031 86.6 91.3 9.52 9.9 118.3 121.8 3.617 3.66
2006 11 214 100 0.05 0.094 2.597 2.687 88.2 92.9 8.7 9.04 121.9 125.5 3.621 3.657
2006 11 214 200 0.022 0.038 2.164 2.243 89.9 94.5 7.93 8.22 128.4 132.1 3.633 3.658
2006 11 214 300 0.008 0.013 1.734 1.811 91.2 95.9 7.46 7.77 118.5 122.4 3.631 3.661
2006 11 214 400 0.007 0.007 1.789 1.868 89.7 94.3 7.67 7.95 113.2 117.4 3.631 3.662
2006 11 214 500 0.012 0.019 1.747 1.825 88 92.6 7.35 7.62 110.5 114.9 3.629 3.662
2006 11 214 600 0.065 0.069 1.623 1.706 85.6 90.2 8 8.29 110.1 113.6 3.629 3.666
2006 11 214 700 0.372 0.313 1.846 1.935 82.7 87.4 8.72 9 105.2 108.1 3.627 3.667
2006 11 214 800 0.712 0.759 2.191 2.277 81.2 85.7 9.21 9.5 103.5 105.7 3.622 3.668
2006 11 214 900 1.122 1.447 2.62 2.704 80.7 85.3 8.74 9.02 105 107.6 3.621 3.666
2006 11 214 1000 1.239 1.693 2.748 2.828 81.2 85.8 8.72 8.99 100.8 104.1 3.621 3.664
2006 11 214 1100 0.933 1.43 2.914 3.002 82.2 86.8 8.25 8.53 97.2 99.7 3.626 3.662
2006 11 214 1200 2.565 3.915 3.188 3.278 80.8 85.5 8.17 8.44 105.4 108.4 3.628 3.662
2006 11 214 1300 2.324 3.703 3.369 3.476 81.6 86.3 8.89 9.2 107.4 110.5 3.618 3.663
2006 11 214 1400 3.487 5.658 3.783 3.892 79.3 84.1 8.06 8.36 105.2 108.1 3.626 3.663
2006 11 214 1500 3.117 5.157 4.001 4.115 79.1 83.9 8.56 8.87 99.2 101.7 3.628 3.665
2006 11 214 1600 3.087 5.205 4.173 4.304 78.2 83 8.71 9.02 107.6 110 3.628 3.666
2006 11 214 1700 2.866 4.897 4.127 4.261 79 83.8 8.78 9.1 108.8 112.6 3.632 3.671
2006 11 214 1800 2.988 5.188 4.238 4.387 78.6 83.4 9.28 9.64 106.5 108.8 3.638 3.676
2006 11 214 1900 1.098 1.852 4.068 4.2 82 86.6 8.38 8.68 95.4 97.3 3.643 3.679
2006 11 214 2000 1.019 1.695 4.186 4.313 83.6 88.4 8.99 9.3 92.5 94.8 3.649 3.682
2006 11 214 2100 1.12 1.814 4.343 4.467 84.1 88.9 10.33 10.66 95.1 97.5 3.648 3.691
2006 11 214 2200 0.536 0.866 4.396 4.527 84.9 89.7 10.73 11.06 97 99.3 3.651 3.695
2006 11 214 2300 0.293 0.5 4.35 4.472 84.3 89 11.13 11.45 98 100.8 3.65 3.701
2006 11 215 0 0.174 0.291 4.192 4.314 84 88.7 11.86 12.23 103.2 106 3.659 3.7
2006 11 215 100 0.115 0.182 4.272 4.403 82.7 87.3 12.22 12.65 110.8 114.4 3.666 3.706
2006 11 215 200 0.023 0.038 3.622 3.742 83.9 88.5 9.92 10.33 117.4 120.9 3.669 3.707
2006 11 215 300 0.004 0.008 3.23 3.34 85 89.6 9.38 9.75 115.8 119.3 3.681 3.705
2006 11 215 400 0 0.005 3.053 3.15 86.5 91.2 9.81 10.17 115.3 118.7 3.678 3.709
2006 11 215 500 0.006 0.01 2.906 2.999 86.7 91.4 8.6 8.9 114.5 118 3.682 3.709
2006 11 215 600 0.018 0.03 2.881 2.979 86.4 91 8.94 9.27 115.6 119.5 3.682 3.711
2006 11 215 700 0.205 0.264 2.908 3.008 86.2 90.8 9.27 9.61 116.8 121.1 3.684 3.709
2006 11 215 800 0.771 0.932 2.816 2.912 83.9 88.6 8.77 9.1 121.7 125.1 3.685 3.708
2006 11 215 900 0.904 1.25 2.781 2.869 82 86.6 8.95 9.26 126.8 130.1 3.685 3.71
2006 11 215 1000 1.736 2.348 2.501 2.584 82.3 87 8.59 8.91 122.1 124.9 3.687 3.713
2006 11 215 1100 0.761 1.178 2.272 2.344 84.8 89.5 8.29 8.61 119.6 123.6 3.689 3.711
2006 11 215 1200 1.466 2.215 2.363 2.437 83.5 88.2 8.6 8.95 120.2 124.1 3.687 3.712
2006 11 215 1300 1.811 2.859 2.486 2.563 83 87.7 8.53 8.85 117.2 121.2 3.688 3.715
2006 11 215 1400 1.959 3.167 2.539 2.617 83 87.8 7.94 8.24 114.1 118 3.688 3.715
2006 11 215 1500 1.9 3.112 2.692 2.776 82.4 87.2 7.97 8.26 110.8 114.7 3.69 3.712
2006 11 215 1600 2.377 3.977 2.74 2.825 82.6 87.5 7.7 7.99 111.8 116.1 3.699 3.713
2006 11 215 1700 3.122 5.54 2.903 3.008 81.7 86.7 8.64 8.99 117.2 121.5 3.706 3.717
2006 11 215 1800 2.556 4.658 2.863 2.964 83 88 8.22 8.55 115.9 119.6 3.704 3.72
2006 11 215 1900 2.358 4.358 2.959 3.082 82.5 87.4 6.622 6.91 114.9 117.9 3.719 3.716
2006 11 215 2000 2.224 4.231 3.007 3.121 82.4 87.4 7.11 7.4 106.6 109.8 3.719 3.721
2006 11 215 2100 1.607 3.3 3.057 3.184 83.2 88.1 7.54 7.85 110.1 113.5 3.719 3.725
2006 11 215 2200 1.189 2.47 2.972 3.096 84.1 89 7.41 7.71 109.4 112.9 3.717 3.732
2006 11 215 2300 0.902 1.745 3.108 3.23 84.4 89.3 7.36 7.65 107.9 110.9 3.72 3.738
2006 11 216 0 0.496 0.989 3.143 3.263 84.4 89.1 7.37 7.66 107.4 110.8 3.721 3.736
2006 11 216 100 0.14 0.284 3.129 3.246 84.6 89.3 7.84 8.14 114.2 116.6 3.72 3.738
2006 11 216 200 0.034 0.054 2.842 2.947 86 90.6 8.07 8.39 113.4 117.3 3.719 3.74
2006 11 216 300 0.009 0.013 2.461 2.564 87.1 91.7 7.11 7.38 107 109.4 3.721 3.742
2006 11 216 400 0.002 0.007 2.387 2.488 86.9 91.5 7.19 7.48 114.9 118 3.728 3.742
2006 11 216 500 0.007 0.011 1.977 2.089 87.1 91.6 6.731 7.03 114.1 116.5 3.729 3.745
2006 11 216 600 0.047 0.05 1.354 1.444 87.9 92.5 6.752 7.02 107.3 109.7 3.735 3.751
2006 11 216 700 0.385 0.34 1.477 1.563 85.3 89.9 6.808 7.05 105.2 108 3.736 3.752
2006 11 216 800 0.44 0.494 1.647 1.731 84 88.6 7.6 7.87 101.6 105.1 3.729 3.751
2006 11 216 900 0.761 1.036 1.652 1.723 83.5 88.1 8.17 8.44 97.8 99.3 3.726 3.752
2006 11 216 1000 1.606 2.26 2.169 2.232 82 86.7 7.83 8.07 100.1 101.5 3.726 3.75
2006 11 216 1100 1.853 2.696 2.534 2.607 82 86.6 7.14 7.38 96.4 98.3 3.726 3.75
2006 11 216 1200 2.441 3.702 2.597 2.675 82.5 87.1 6.191 6.437 98.8 101.2 3.736 3.746
2006 11 216 1300 2.073 3.307 2.51 2.593 84.3 88.9 5.072 5.318 102.8 105.7 3.742 3.747
2006 11 216 1400 2.173 3.578 2.215 2.315 86.5 91.3 3.899 4.143 108.4 112.8 3.742 3.746
2006 11 216 1500 2.425 4.057 2.125 2.206 85.8 91 2.976 3.184 132.9 136.7 3.749 3.742
2006 11 216 1600 2.652 4.525 1.811 1.839 86.1 91.5 2.67 2.789 139.5 143.9 3.752 3.746
2006 11 216 1700 3.161 5.53 1.563 1.562 86.8 92.7 2.658 2.756 139.8 143.7 3.759 3.75
2006 11 216 1800 2.032 3.532 1.156 1.147 91.3 97 2.616 2.754 141.9 145.6 3.757 3.751
2006 11 216 1900 1.41 2.383 0.986 0.974 93.8 99 2.12 2.188 146.9 150.7 3.759 3.75
2006 11 216 2000 1.093 1.87 0.577 0.576 97.4 102.5 2.689 2.666 153.1 155.4 3.77 3.753
2006 11 216 2100 0.654 1.138 0.297 0.297 100.9 105.7 2.803 2.676 163.3 165.8 3.765 3.755
2006 11 216 2200 0.381 0.671 0.09 0.089 102.5 107.3 3.236 3.062 158.1 160.8 3.765 3.756
2006 11 216 2300 0.207 0.366 0.088 0.085 102.9 107.8 2.435 2.41 152.3 155.7 3.769 3.753
2006 11 217 0 0.114 0.201 0.084 0.073 103.2 108.2 2.152 2.189 148.3 151.7 3.776 3.756
2006 11 217 100 0.052 0.095 -0.006 -0.023 103.4 108.4 2.364 2.227 163.1 165.3 3.769 3.758
2006 11 217 200 0.014 0.026 -0.108 -0.122 103.6 108.4 1.857 1.74 160.7 162.6 3.774 3.762
2006 11 217 300 0 0.005 -0.14 -0.172 103.7 108.5 0.867 0.856 152.8 156.6 3.792 3.767
2006 11 217 400 0 0 -0.157 -0.174 103.8 108.6 0.428 0.491 123.2 123.4 3.799 3.775
2006 11 217 500 0 0.007 -0.167 -0.161 103.9 108.7 0.49 0.589 84.8 81 0.636 3.796
2006 11 217 600 0.011 0.04 -0.191 -0.171 103.9 108.7 0.656 0.758 82.1 80.2 3.151 3.799
2006 11 217 700 0.05 0.203 -0.534 -0.465 103.6 108.6 0.687 0.801 263.3 271.8 3.766 3.779
2006 11 217 800 0.127 0.509 -0.798 -0.777 103.2 108.2 0.85 0.97 308.2 311.9 3.767 3.785
2006 11 217 900 0.216 0.897 -0.019 -0.152 102.7 108 0.619 0.591 331.2 334.6 3.776 3.772
2006 11 217 1000 0.558 1.728 -0.03 0.068 100.8 106.2 0.805 0.443 300.7 304.8 3.763 3.75
2006 11 217 1100 1.205 2.708 0.173 0.216 99.1 103.4 1.342 1.39 300.7 303.7 3.771 3.749
2006 11 217 1200 1.433 3.256 0.213 0.317 97.7 101.8 1.595 1.639 293.7 295.7 3.757 3.75
2006 11 217 1300 1.921 4.216 0.594 0.768 93.3 97.8 1.374 1.401 287 289.6 3.766 3.753
2006 11 217 1400 2.32 5.001 0.756 0.753 89.1 94.1 1.263 1.29 273.1 276.3 3.776 3.755
2006 11 217 1500 2.146 4.547 0.314 0.253 95.4 99.9 1.892 1.925 245.9 249.6 3.765 3.754
2006 11 217 1600 2.602 5.591 0.621 0.549 94.1 99 1.646 1.817 223.4 231 3.758 3.752
2006 11 217 1700 2.66 5.623 0.61 0.758 93.5 98 0.908 1.647 205.3 214.7 3.764 3.747
2006 11 217 1800 2.019 4.132 0.388 0.294 95.8 100.8 1.387 1.436 186.9 188.6 3.758 3.751
2006 11 217 1900 1.225 2.459 0.142 0.067 99 104 1.323 1.382 187.6 188.7 3.766 3.754
2006 11 217 2000 0.998 1.983 0.076 0.039 100.1 105.2 2.254 2.125 164.6 165.8 3.771 3.755
2006 11 217 2100 0.936 1.824 0.034 0.038 100.6 105.9 2.512 2.566 145.1 149 3.772 3.758
2006 11 217 2200 0.532 1.022 0.043 0.035 101.5 106.7 2.42 2.453 144.3 147 3.772 3.759
2006 11 217 2300 0.385 0.733 0.135 0.137 101.3 106.4 2.583 2.69 124.6 128.3 3.771 3.759
2006 11 218 0 0.202 0.406 0.221 0.228 100.8 105.9 2.723 2.852 117.8 120.1 3.77 3.759
2006 11 218 100 0.099 0.26 0.327 0.354 98.8 103.9 3.079 3.227 107.9 110.4 3.768 3.759
2006 11 218 200 0.015 0.03 0.181 0.24 97.6 102.5 3.561 3.771 100.7 104.2 3.769 3.762
2006 11 218 300 0.002 0.005 -0.39 -0.288 95.6 100.4 4.153 4.419 101.5 103.5 3.772 3.768
2006 11 218 400 0 0 -0.851 -0.752 95.7 100.5 4.393 4.645 103.6 106.7 3.776 3.771
2006 11 218 500 0.003 0.007 -1.104 -1.009 95.6 100.4 4.606 4.864 109.8 112.2 3.778 3.773
2006 11 218 600 0.016 0.03 -1.117 -1.028 93.9 98.5 5.592 5.848 107.5 110 3.777 3.777
2006 11 218 700 0.129 0.16 -0.934 -0.851 90.7 95.2 6.372 6.64 101.5 103.9 3.775 3.775
2006 11 218 800 0.675 0.801 -0.548 -0.482 86.9 91.5 7.19 7.45 98 100.5 3.773 3.774
2006 11 218 900 1.158 1.665 -0.609 -0.569 85 89.5 6.972 7.21 103.5 104.4 3.776 3.776
2006 11 218 1000 1.664 2.499 -0.394 -0.363 83.4 87.9 7.54 7.78 101.4 103.6 3.773 3.775
2006 11 218 1100 2.159 3.448 0.069 0.094 81.5 85.8 8 8.24 106.5 108.7 3.77 3.774
2006 11 218 1200 2.588 4.329 0.452 0.47 81 85.4 7.81 8.03 107.1 109.8 3.771 3.773
2006 11 218 1300 2.926 5.086 1.141 1.16 80.2 84.5 7.83 8.05 105.1 107.5 3.765 3.767
2006 11 218 1400 3.156 5.648 1.729 1.749 79.1 83.6 7.92 8.15 106.6 109.3 3.762 3.764
2006 11 218 1500 3.255 5.961 2.038 2.071 79.4 84 7.45 7.69 107.3 110.4 3.756 3.763
2006 11 218 1600 3.228 6.061 2.153 2.2 79.3 83.9 7.37 7.6 104.4 107.6 3.756 3.761
2006 11 218 1700 3.074 5.956 2.433 2.497 76.5 81.1 8.12 8.38 103.4 106.2 3.754 3.761
2006 11 218 1800 2.782 5.568 2.562 2.631 76.2 80.8 8.47 8.72 102.1 105.6 3.752 3.763
2006 11 218 1900 2.407 5.014 2.528 2.607 77.1 81.8 8.93 9.2 102.8 104.6 3.756 3.765
2006 11 218 2000 1.9 4.079 2.582 2.667 77.3 81.9 9.95 10.26 105.4 108 3.762 3.772
2006 11 218 2100 1.473 3.265 2.562 2.653 78.4 83 10.15 10.46 102.1 104 3.757 3.771
2006 11 218 2200 0.986 2.262 2.263 2.345 79.8 84.5 9.56 9.85 99.7 102.6 3.763 3.774
2006 11 218 2300 0.369 0.798 1.72 1.804 81.1 85.5 8.88 9.16 99.3 102 3.77 3.778
2006 11 219 0 0.211 0.471 1.291 1.376 80.6 85 8.4 8.68 104.8 107.3 3.768 3.779
2006 11 219 100 0.068 0.139 0.91 0.997 78.8 83.1 8.49 8.77 98.6 100.9 3.771 3.781
2006 11 219 200 0.019 0.031 0.253 0.325 79.4 83.6 7.96 8.23 96.6 99.4 3.777 3.786
2006 11 219 300 0.003 0.007 0.007 0.076 77.9 82.2 8.86 9.14 95.9 97.8 3.776 3.79
2006 11 219 400 0 0.001 -0.671 -0.614 78.1 82.4 9.28 9.59 88.7 91.2 3.784 3.794
2006 11 219 500 0.013 0.019 -1.173 -1.122 77.7 81.9 10.38 10.72 86.7 88.4 3.789 3.799
2006 11 219 600 0.042 0.062 -1.536 -1.482 79.2 83.6 9.4 9.7 82.9 83.6 3.798 3.8
2006 11 219 700 0.299 0.327 -1.192 -1.134 77.4 81.8 10.04 10.36 83.4 84.7 3.795 3.8
2006 11 219 800 0.726 0.992 -0.829 -0.78 77.6 82 11.17 11.54 84.9 87.1 3.791 3.801
2006 11 219 900 1.021 1.565 -0.252 -0.203 78.7 83.2 11.31 11.64 86.7 88.9 3.788 3.798
2006 11 219 1000 1.659 2.488 0.126 0.175 78.7 83.1 10.78 11.1 94.2 96.9 3.786 3.801
2006 11 219 1100 1.121 1.833 0.741 0.798 79.5 83.9 11.18 11.53 104.5 107.8 3.782 3.794
2006 11 219 1200 2.31 3.763 1.381 1.44 78.8 83.3 11.35 11.75 113.4 116.9 3.778 3.791
2006 11 219 1300 1.661 2.821 1.822 1.893 79.7 84.2 11.37 11.79 115.7 118.6 3.778 3.784
2006 11 219 1400 1.838 3.211 2.152 2.228 81.6 86.2 8.95 9.26 112.9 117.3 3.77 3.776
2006 11 219 1500 2.024 3.548 2.431 2.522 81.6 86.3 8.27 8.59 117.7 121.8 3.776 3.769
2006 11 219 1600 2.714 4.828 2.774 2.873 79.5 84.2 8.92 9.27 119.1 122.9 3.781 3.77
2006 11 219 1700 2.345 4.308 3.025 3.14 79 83.7 9.38 9.76 119.1 122.8 3.779 3.778
2006 11 219 1800 1.133 2.066 3.028 3.127 80.9 85.5 9.48 9.83 118.8 122.9 3.779 3.78
2006 11 219 1900 1.95 3.836 2.993 3.11 80.7 85.5 9.43 9.79 121.6 126.6 3.781 3.782
2006 11 219 2000 1.88 3.981 3.027 3.152 80.7 85.6 9.49 9.84 125.3 128.1 3.785 3.784
2006 11 219 2100 1.398 3.116 2.797 2.913 83.4 88.4 8.45 8.76 128.4 131.5 3.792 3.779
2006 11 219 2200 0.955 2.174 2.614 2.721 84.7 89.7 6.91 7.18 128.7 132.6 3.795 3.773
2006 11 219 2300 0.555 1.291 2.599 2.7 84.8 89.6 7.44 7.72 126.6 130.2 3.794 3.78
2006 11 220 0 0.207 0.569 2.177 2.262 86.5 91.3 7.83 8.15 120.3 123.9 3.796 3.784
2006 11 220 100 0.053 0.133 1.755 1.832 88 92.6 7.44 7.71 125.7 129.2 3.798 3.785
2006 11 220 200 0.01 0.016 0.984 1.055 90.8 95.4 6.365 6.632 123.6 127.6 3.804 3.788
2006 11 220 300 0 0.003 0.345 0.414 92.6 97.1 5.757 6.004 118.9 123.8 3.806 3.789
2006 11 220 400 0 0 -0.128 -0.049 93.9 98.4 5.213 5.444 107.3 110.2 3.813 3.793
2006 11 220 500 0.002 0.004 -0.276 -0.196 95.3 99.9 4.901 5.139 110.2 112.8 3.812 3.794
2006 11 220 600 0.011 0.02 0.824 0.884 96 100.6 4.711 4.929 107.2 110.2 3.806 3.786
2006 11 220 700 0.053 0.095 1.197 1.252 96.3 100.9 4.464 4.675 113.2 117.1 3.798 3.783
2006 11 220 800 0.215 0.366 1.118 1.164 96.9 101.6 4.254 4.464 114.9 118.6 3.801 3.79
2006 11 220 900 0.354 0.614 1.171 1.227 96.9 101.5 3.646 3.845 116.7 119.9 3.803 3.795
2006 11 220 1000 0.386 0.691 1.217 1.286 96.4 101 3.378 3.579 109.7 112.7 3.809 3.784
2006 11 220 1100 0.643 1.142 1.276 1.346 95.2 99.7 2.811 2.999 105.3 108.2 3.814 3.78
2006 11 220 1200 1.009 1.768 1.476 1.562 94 98.5 2.741 2.947 87 88.3 3.804 3.779
2006 11 220 1300 1.424 2.457 1.589 1.657 92.8 97.4 3.437 3.635 104.5 106.9 3.8 3.779
2006 11 220 1400 1.817 3.132 1.76 1.826 92.7 97.4 4.364 4.574 100.1 103 3.807 3.781
2006 11 220 1500 2.602 4.472 1.843 1.906 92.5 97.4 4.251 4.466 105.9 109.7 3.804 3.781
2006 11 220 1600 3.667 6.511 2.134 2.203 88.7 93.7 4.084 4.297 111.6 114.8 3.805 3.78
2006 11 220 1700 2.531 4.618 2.263 2.35 89.8 94.5 4.979 5.233 91.6 93.4 3.807 3.785
2006 11 220 1800 1.992 3.721 2.445 2.538 87.4 92.1 3.641 3.832 90.2 93 3.809 3.788
2006 11 220 1900 2.283 4.674 2.83 2.96 84.6 89.3 5.819 6.108 90.7 92.2 3.804 3.794
2006 11 220 2000 1.854 3.966 3.092 3.213 82.2 86.9 5.699 5.945 93.3 96.2 3.808 3.796
2006 11 220 2100 1.45 3.211 3.134 3.261 81.4 86.1 6.568 6.842 96.1 98.7 3.806 3.795
2006 11 220 2200 0.967 2.114 3.36 3.484 80.2 84.9 7.74 8.03 94 95.8 3.814 3.801
2006 11 220 2300 0.45 0.93 3.13 3.233 80.9 85.5 8.32 8.61 91.9 94.2 3.81 3.802
2006 11 221 0 0.268 0.631 2.832 2.927 80.9 85.5 9.27 9.55 97.6 101.1 3.815 3.809
2006 11 221 100 0.067 0.147 2.452 2.541 80.7 85.1 9.22 9.5 98.3 100.6 3.816 3.809
2006 11 221 200 0.016 0.025 2.205 2.283 79.9 84.3 9.34 9.64 95.9 98.1 3.817 3.815
2006 11 221 300 0 0.001 2.134 2.206 79.5 84 9.95 10.24 102.4 105.2 3.819 3.815
2006 11 221 400 0 0 2.244 2.318 80 84.4 11.18 11.52 109.7 112.1 3.819 3.814
2006 11 221 500 0 0 2.395 2.464 80.9 85.3 12.14 12.49 107.1 111.1 3.817 3.817
2006 11 221 600 0.012 0.02 2.337 2.404 83 87.5 11.61 11.96 108.7 110.6 3.815 3.817
2006 11 221 700 0.023 0.04 2.37 2.444 88.1 92.6 10.98 11.34 115.7 118.7 3.82 3.817
2006 11 221 800 0.136 0.232 1.611 1.654 94.7 99.4 9.22 9.29 143.9 147 3.831 3.812
2006 11 221 900 0.179 0.323 0.718 0.729 99.8 104.6 7.05 7.23 144.1 148.3 3.838 3.816
2006 11 221 1000 0.207 0.384 0.707 0.721 102.6 107.5 8.07 8.22 145.5 149.4 3.834 3.813
2006 11 221 1100 0.246 0.459 0.714 0.727 103.4 108.3 7.63 7.59 150.4 153.9 3.834 3.808
2006 11 221 1200 0.475 0.869 0.498 0.498 103.4 108.3 7.88 7.42 161.6 164.3 3.197 3.806
2006 11 221 1300 0.583 1.069 0.329 0.321 103.2 108.2 7.7 7.21 161.6 164.2 3.196 3.809
2006 11 221 1400 1.148 2.089 0.233 0.19 102.3 107.5 6.891 6.504 156 159.6 3.833 3.809
2006 11 221 1500 1.302 2.494 0.236 0.214 101.8 107.2 6.019 5.921 150.1 153.9 3.838 3.812
2006 11 221 1600 2.022 3.948 0.053 0.029 100.6 106.2 7.34 7.03 154.2 157 3.842 3.814
2006 11 221 1700 2.062 4.03 -0.389 -0.426 100.7 106 8.27 7.77 163.9 164.7 3.839 3.814
2006 11 221 1800 1.859 3.646 -0.547 -0.579 101.4 106.5 7.7 7.3 164.8 165.7 3.841 3.811
2006 11 221 1900 1.812 3.594 -0.538 -0.57 101.6 106.6 7.26 6.816 166.5 167.4 3.842 3.809
2006 11 221 2000 1.4 2.792 -0.445 -0.47 102 107 6.937 6.412 161.9 163.9 3.838 3.806
2006 11 221 2100 0.99 1.935 -0.372 -0.409 102.6 107.5 6.097 5.965 151.7 155.3 3.834 3.807
2006 11 221 2200 0.818 1.586 -0.278 -0.319 102.7 107.6 5.684 5.732 146.3 149.5 3.83 3.807
2006 11 221 2300 0.276 0.545 -0.281 -0.299 103.2 108 5.591 5.694 142.5 145.9 3.831 3.806
2006 11 222 0 0.106 0.21 -0.096 -0.095 103.6 108.4 5.464 5.597 133.3 136.8 3.829 3.806
2006 11 222 100 0.03 0.062 0.131 0.117 103.6 108.6 3.833 3.981 124.8 127.5 3.428 3.803
2006 11 222 200 0.004 0.009 0.454 0.424 100.4 107.3 4.143 4.324 111.7 114.8 3.823 3.802
2006 11 222 300 0 0 0.477 0.481 96.3 102.3 4.362 4.54 107.2 110.5 3.824 3.802
2006 11 222 400 0 0 0.408 0.419 94.7 100.1 4.84 5.011 111.3 114.4 3.824 3.804
2006 11 222 500 0 0 0.306 0.325 96.1 101.3 4.411 4.58 117.3 120.6 3.825 3.803
2006 11 222 600 0.009 0.017 0.142 0.169 97 102.1 5.258 5.455 118.1 122.4 3.826 3.806
2006 11 222 700 0.088 0.166 -0.058 -0.029 98.4 103.3 4.506 4.692 123.3 126.5 3.827 3.807
2006 11 222 800 0.204 0.385 0.14 0.168 98.1 103.2 4.35 4.533 120.4 124 3.827 3.805
2006 11 222 900 0.37 0.704 0.389 0.414 98.2 103.3 4.021 4.176 125.6 128.1 3.825 3.803
2006 11 222 1000 0.653 1.236 0.5 0.529 97 102 4.442 4.604 130.7 134.7 3.825 3.802
2006 11 222 1100 1.141 2.15 0.617 0.626 96.3 101.7 4.012 4.154 137.2 141.2 3.825 3.802
2006 11 222 1200 1.412 2.659 0.609 0.591 97.8 103.5 4.417 4.553 132.7 136.4 3.825 3.803
2006 11 222 1300 1.571 2.951 0.755 0.767 96.8 102.3 3.984 4.122 128.8 132.4 3.824 3.802
2006 11 222 1400 1.718 3.214 0.739 0.782 96 101.2 3.784 3.916 128.9 132.8 3.825 3.802
2006 11 222 1500 1.927 3.658 0.701 0.741 96.5 102 3.595 3.733 123.2 126.1 3.828 3.804
2006 11 222 1600 2.254 4.261 0.846 0.905 95.2 100.6 4.333 4.481 115.7 119.4 3.828 3.809
2006 11 222 1700 2.309 4.386 1.079 1.115 93.7 98.9 4.756 4.942 115.4 118.5 3.827 3.809
2006 11 222 1800 2.127 4.159 1.192 1.233 91.9 97 4.21 4.377 113.3 116.9 3.829 3.808
2006 11 222 1900 1.537 3.119 1.194 1.24 91.6 96.6 4.07 4.247 109.3 111.7 3.834 3.806
2006 11 222 2000 1.542 3.274 1.137 1.207 90.7 95.5 3.789 3.977 110.2 114.1 3.836 3.806
2006 11 222 2100 1.364 3.05 1.132 1.202 89.8 94.7 4.083 4.275 111.6 114.6 3.839 3.808
2006 11 222 2200 0.607 1.36 0.426 0.537 91.3 95.9 3.17 3.367 117 120 3.847 3.812
2006 11 222 2300 0.709 1.781 0.439 0.614 89.1 93.9 2.056 2.235 124.7 129 3.846 3.812
2006 11 223 0 0.186 0.509 -0.152 0.143 92 96.2 2.102 2.296 117.4 120.6 3.854 3.818
2006 11 223 100 0.037 0.075 -0.615 -0.237 91.2 94.6 3.033 3.387 101.3 104.2 3.859 3.821
2006 11 223 200 0.004 0.009 -1.85 -1.632 92.1 96 3.239 3.558 76.4 78.8 3.87 3.829
2006 11 223 300 0 0 -2.095 -1.974 92 96.3 4.061 4.359 73 75 3.869 3.832
2006 11 223 400 0 0 -2.068 -1.954 89.7 93.9 4.556 4.836 77.1 79.1 3.872 3.835
2006 11 223 500 0 0 -2.969 -2.825 90.2 94.4 4.24 4.536 82.6 84.6 3.877 3.841
2006 11 223 600 0.009 0.017 -3.22 -3.078 88.4 92.6 4.89 5.176 84.4 85.8 3.878 3.844
2006 11 223 700 0.054 0.094 -2.859 -2.785 84.7 88.9 6.671 6.932 92.7 95.7 3.871 3.848
2006 11 223 800 0.553 0.623 -3.55 -3.493 84.3 88.6 7.05 7.32 86.8 89.2 3.88 3.853
2006 11 223 900 1.03 1.453 -2.87 -2.82 81.2 85.5 8.1 8.35 104 106.8 3.871 3.851
2006 11 223 1000 1.529 2.344 -2.978 -2.947 80.6 84.9 8.57 8.81 98 99.9 3.87 3.855
2006 11 223 1100 2.016 3.3 -3.047 -3.026 80.2 84.4 9.14 9.41 90.2 92.6 3.868 3.854
2006 11 223 1200 2.456 4.232 -2.617 -2.593 79.4 83.6 9.24 9.51 84.9 87.2 3.864 3.853
2006 11 223 1300 2.799 5.051 -1.711 -1.687 79.6 83.8 9.99 10.28 85.4 86.6 3.859 3.848
2006 11 223 1400 3.044 5.684 -0.433 -0.427 76.7 81.1 10.81 11.09 85.8 87.6 3.845 3.842
2006 11 223 1500 3.157 6.066 -0.187 -0.188 76.4 81 10.66 10.93 83.9 84.1 3.845 3.842
2006 11 223 1600 3.124 6.208 0.489 0.513 76.1 80.7 9.79 10.03 93.9 95.7 3.84 3.836
2006 11 223 1700 2.942 6.086 1.3 1.337 76.4 81 7.56 7.75 109.4 112.6 3.834 3.82
2006 11 223 1800 2.654 5.672 1.61 1.661 78.9 83.7 6.215 6.382 109.6 114 3.835 3.815
2006 11 223 1900 2.279 5.078 1.726 1.814 80 84.8 5.808 5.998 116.4 119.3 3.837 3.812
2006 11 223 2000 1.808 4.183 1.699 1.787 81 85.8 6.355 6.561 116.6 120 3.835 3.814
2006 11 223 2100 1.353 3.28 1.452 1.533 82.6 87.4 6.073 6.28 110.1 113 3.838 3.816
2006 11 223 2200 0.898 2.258 1.117 1.204 83.9 88.7 6.001 6.223 110.5 113 3.839 3.817
2006 11 223 2300 0.458 1.273 0.536 0.63 85.2 89.9 6.202 6.455 105.3 108.7 3.841 3.823
2006 11 224 0 0.142 0.498 0.203 0.321 83.9 88.4 6.123 6.397 103.9 106.1 3.844 3.825
2006 11 224 100 0.035 0.089 -0.45 -0.342 83.3 87.6 6.989 7.27 98.4 100.8 3.848 3.833
2006 11 224 200 0.006 0.012 -0.638 -0.524 83.9 88.2 7.46 7.74 101.8 104.4 3.848 3.837
2006 11 224 300 0 0 -1.155 -1.058 86.4 90.9 7.47 7.73 103.2 104.8 3.851 3.839
2006 11 224 400 0 0 -1.285 -1.189 85.5 89.9 8.13 8.4 102.9 104.8 3.851 3.842
2006 11 224 500 0 0.001 -1.328 -1.23 82.6 87 8.81 9.09 102.6 105.5 3.85 3.846
2006 11 224 600 0.011 0.017 -1.924 -1.832 81.7 86.1 8.86 9.12 100.6 102.8 3.856 3.849
2006 11 224 700 0.103 0.109 -2.117 -2.036 81.3 85.7 9.1 9.36 102.7 104.2 3.856 3.852
2006 11 224 800 0.538 0.603 -1.843 -1.751 82.3 86.8 7.57 7.82 103.6 105.5 3.857 3.847
2006 11 224 900 0.934 1.281 -1.531 -1.45 82.8 87.4 6.492 6.714 107.4 110.5 3.854 3.842
2006 11 224 1000 1.023 1.541 -1.474 -1.394 85.2 89.7 6.555 6.809 108.4 111.7 3.854 3.842
2006 11 224 1100 1.802 2.88 -1.079 -1.01 85 89.4 6.011 6.246 114.2 117.3 3.852 3.838
2006 11 224 1200 2.341 3.933 -0.111 -0.064 85.1 89.7 4.938 5.133 119 122.5 3.848 3.826
2006 11 224 1300 2.808 4.943 0.831 0.848 86.1 90.8 5.138 5.298 129.7 133.4 3.842 3.819
2006 11 224 1400 2.989 5.469 0.749 0.716 85.9 91.2 4.728 4.87 138.1 142.3 3.843 3.819
2006 11 224 1500 2.91 5.451 0.812 0.789 85.9 91.3 4.809 4.943 135.6 139.2 3.843 3.818
2006 11 224 1600 3.439 6.576 0.954 0.963 86 91.3 4.864 5.004 131.7 135.1 3.842 3.817
2006 11 224 1700 2.958 5.873 1.111 1.122 86.1 91.4 4.944 5.097 132.9 136.3 3.84 3.815
2006 11 224 1800 2.504 5.146 1.204 1.262 86.7 91.7 4.534 4.699 116 118.6 3.838 3.815
2006 11 224 1900 2.584 5.508 1.409 1.491 86.2 91.2 4.789 4.979 115.4 118 3.836 3.815
2006 11 224 2000 2.2 4.791 1.495 1.571 86.4 91.3 4.656 4.841 111.7 114.2 3.834 3.814
2006 11 224 2100 1.319 3.106 1.254 1.341 87.4 92.3 4.19 4.383 110.7 113.9 3.838 3.817
2006 11 224 2200 1.018 2.316 1.189 1.284 88.2 93 4.055 4.267 106.3 109.4 3.84 3.818
2006 11 224 2300 0.383 0.783 0.597 0.707 91.9 96.5 3.791 4.012 116.2 119.2 3.844 3.82
2006 11 225 0 0.123 0.227 0.296 0.384 92.9 97.2 3.345 3.536 112.9 117.1 3.846 3.822
2006 11 225 100 0.021 0.038 0.141 0.273 91.5 95.4 2.227 2.378 138 141.6 3.848 3.822
2006 11 225 200 0.001 0.003 -0.028 0.102 90.4 94.4 3.087 3.321 129.5 133.9 3.849 3.823
2006 11 225 300 0 0 0.005 0.071 93.8 98.3 4.04 4.258 130.8 134.3 3.849 3.821
2006 11 225 400 0 0 -0.419 -0.364 96.9 101.5 3.906 4.105 125.1 128.7 3.85 3.825
2006 11 225 500 0 0 0.306 0.316 100.7 105.5 4.743 4.651 152.1 154.3 3.293 3.82
2006 11 225 600 0.002 0.004 0.029 0.021 103.4 108.3 4.673 4.431 166.8 168.3 3.887 2.104
2006 11 225 700 0.031 0.059 0.219 0.215 103.8 108.7 3.135 3.058 159.4 161.4 3.887 1.972
2006 11 225 800 0.099 0.183 0.291 0.292 104 108.8 2.788 2.903 110.5 114.4 3.883 3.82
2006 11 225 900 0.599 0.91 0.435 0.434 103.8 108.7 3.344 3.491 106.4 109 3.858 3.82
2006 11 225 1000 1.453 2.084 0.25 0.184 101.4 105.7 3.611 3.814 103.4 107 3.847 3.825
2006 11 225 1100 1.22 2.089 0.859 0.824 99.8 103.4 3.955 4.12 97.6 99.1 3.841 3.819
2006 11 225 1200 1.962 3.236 1.371 1.397 95.5 98.7 4.784 4.98 98.2 100.1 3.837 3.82
2006 11 225 1300 2.717 4.581 1.631 1.675 87.7 91.8 5.023 5.233 98.6 101.3 3.838 3.819
2006 11 225 1400 2.975 5.24 1.088 1.083 87.4 92.1 5.581 5.755 120.2 124.1 3.842 3.821
2006 11 225 1500 3.072 5.614 1.311 1.314 83.6 88.2 6.323 6.505 108.8 111 3.839 3.823
2006 11 225 1600 3.033 5.744 1.549 1.578 81.7 86.3 7.18 7.39 102.9 105.2 3.836 3.825
2006 11 225 1700 2.869 5.65 1.647 1.689 81.7 86.4 7.24 7.45 100.2 102.8 3.835 3.826
2006 11 225 1800 2.586 5.272 1.814 1.867 80.4 85.1 7.36 7.59 99 101.5 3.834 3.825
2006 11 225 1900 2.216 4.714 1.904 1.976 78.9 83.5 7.94 8.18 94.6 96.3 3.835 3.825
2006 11 225 2000 1.771 3.979 1.804 1.879 78.1 82.7 8.32 8.56 95.9 98.3 3.838 3.828
2006 11 225 2100 1.299 3.073 1.567 1.645 77 81.5 8.66 8.93 91.7 93.7 3.84 3.83
2006 11 225 2200 0.853 2.091 1.038 1.112 77.9 82.5 8.61 8.88 87.5 89.7 3.847 3.833
2006 11 225 2300 0.434 1.169 0.576 0.644 76.7 81.1 10.18 10.49 90.6 92.5 3.85 3.84
2006 11 226 0 0.123 0.411 -0.054 0.01 75.3 79.6 10.93 11.25 92.3 95.7 3.852 3.846
2006 11 226 100 0.026 0.057 -1.005 -0.951 76.7 80.9 11.46 11.81 88.8 90.9 3.858 3.856
2006 11 226 200 0.002 0.004 -1.579 -1.529 76.5 80.6 12.9 13.28 89.8 91.8 3.861 3.866
2006 11 226 300 0 0 -1.944 -1.886 76.1 80.1 12.97 13.36 91.9 94.5 3.861 3.866
2006 11 226 400 0 0 -1.873 -1.795 74.5 78.6 13.25 13.64 94 96.4 3.865 3.867
2006 11 226 500 0 0 -2.24 -2.177 74.6 78.8 13.53 13.92 94.3 96.1 3.866 3.868
2006 11 226 600 0.007 0.011 -2.716 -2.655 75.6 79.8 13.15 13.53 94.9 97.1 3.872 3.873
2006 11 226 700 0.084 0.092 -2.973 -2.912 75.5 79.8 13.06 13.45 92.3 94.3 3.87 3.872
2006 11 226 800 0.468 0.522 -2.697 -2.641 77.9 82.5 13.01 13.41 94.1 96.5 3.874 3.872
2006 11 226 900 0.951 1.3 -2.244 -2.192 77.9 82.4 13.41 13.79 101.2 103.7 3.866 3.871
2006 11 226 1000 1.446 2.127 -1.573 -1.52 76.6 81 13.5 13.89 100.7 104.8 3.86 3.864
2006 11 226 1100 1.925 3.007 -0.761 -0.716 78.7 83.2 13.37 13.76 101.5 104.2 3.86 3.864
2006 11 226 1200 2.363 3.859 0.525 0.556 81.9 86.5 12.46 12.82 100.9 104.8 3.851 3.849
2006 11 226 1300 2.802 4.714 2.106 2.153 84.3 89 10.38 10.71 106.8 109.5 3.843 3.836
2006 11 226 1400 2.911 4.992 2.604 2.663 85.5 90.2 8.41 8.71 109 111.1 3.846 3.826
2006 11 226 1500 3.015 5.323 2.993 3.073 84.7 89.5 8.06 8.36 104.4 105.6 3.852 3.824
2006 11 226 1600 2.957 5.345 3.184 3.284 84.2 89.1 8.08 8.4 104.7 107.3 3.854 3.832
2006 11 226 1700 2.718 5.094 3.232 3.343 84.5 89.4 8.08 8.39 106.8 110.1 3.87 3.842
2006 11 226 1800 2.137 4.088 3.27 3.386 84.9 89.7 7.73 8.03 108.8 112.4 3.881 3.845
2006 11 226 1900 1.973 3.87 3.482 3.62 84.3 89.2 8.2 8.53 100.6 102.8 3.88 3.851
2006 11 226 2000 1.634 3.307 3.717 3.859 83.9 88.7 8.92 9.26 103.3 105.2 3.878 3.855
2006 11 226 2100 1.084 2.051 3.935 4.086 83.9 88.6 8.96 9.3 99.8 102.2 3.884 3.853
2006 11 226 2200 0.839 1.769 3.988 4.138 83.7 88.5 9.04 9.37 99.2 101.6 3.878 3.856
2006 11 226 2300 0.418 0.888 4.078 4.214 84.3 89 9.96 10.31 101.2 103.7 3.875 3.857
2006 11 227 0 0.148 0.289 4.222 4.355 82.4 87 11.14 11.51 99.2 101.6 3.881 3.857
2006 11 227 100 0.041 0.067 4.179 4.307 81.6 86.2 11.82 12.21 97.8 100.2 3.881 3.866
2006 11 227 200 0.006 0.007 4.109 4.244 85.4 89.9 11 11.4 101 103 3.879 3.866
2006 11 227 300 0 0 3.781 3.916 90.8 95.4 9.63 9.98 103.4 106.5 3.889 3.864
2006 11 227 400 0 0 3.612 3.747 93 97.5 9.43 9.8 112.9 115.8 3.901 3.871
2006 11 227 500 0 0 3.884 4.024 91.3 95.8 9.43 9.81 113 116.8 3.897 3.869
2006 11 227 600 0.01 0.011 4.331 4.502 89.3 93.7 9.15 9.56 118.3 121.6 3.893 3.871
2006 11 227 700 0.035 0.049 4.803 4.992 86.2 90.6 8.96 9.35 113.1 116.9 3.897 3.867
2006 11 227 800 0.117 0.176 4.488 4.669 85.6 90.1 9.32 9.73 114.9 117.7 3.904 3.871
2006 11 227 900 0.262 0.399 4.159 4.324 85.4 89.8 8.33 8.69 109.2 111.9 3.904 3.873
2006 11 227 1000 0.485 0.74 3.87 4.025 87.3 91.8 7.74 8.07 109.4 112 3.911 3.877
2006 11 227 1100 0.621 0.955 4.036 4.189 89.8 94.5 8.44 8.78 112.7 116.5 3.915 3.881
2006 11 227 1200 0.794 1.209 4.219 4.373 91.7 96.5 9.23 9.58 108.8 112.5 3.91 3.887
2006 11 227 1300 0.869 1.311 4.785 4.954 88.4 93.1 11.19 11.58 108.2 111.5 3.898 3.892
